sid,session_code,mk_session,prolific_id,participant_code,round_nb,player,dyad,manipulation,condition,difficulty,confidence_1,confidence_2,indv_response,correct_response,indv_responded_correctly,rt_individual,indv_stim_order,group_choice,grp_responded_correctly,decision_count,group_rt,both_agree,mean_social_dominance,mean_aggresive_dominance,confidence_levels,player_nb,other_manipulation,changed_answer,group_follows_individual,conf_change,speech_onset,onset_diff,spoke_first,abs_dyad_conf_diff1,abs_dyad_conf_diff2,conf_diff_1,higher_conf,abs_conf_diff_levels,other_higher_conf
interactive_psychophysics,rix3vv3s,mk_3_rix3vv3s,665a1f5b7901b74f83188cf8,e9xef3dy,1,1e9xef3dy,p1p2,dominant,Conflict,Easy,88,60,Left,Left,True,4252.2,27:20,Left,,1,28878.6,1,4.0,3.142857142857143,4,p1,submissive,False,True,-28,2575.0625,633.4791666666667,False,72.0,0.0,72.0,True,4,False
interactive_psychophysics,rix3vv3s,mk_3_rix3vv3s,665a1f5b7901b74f83188cf8,e9xef3dy,2,1e9xef3dy,p1p3,dominant,Non-conflict,Easy,85,85,Right,Right,True,1788.8,30:40,Right,True,1,20949.1,1,4.0,3.142857142857143,4,p1,submissive,False,True,0,4716.583333333333,3983.354166666666,False,4.0,7.0,4.0,True,1,False
interactive_psychophysics,rix3vv3s,mk_3_rix3vv3s,665a1f5b7901b74f83188cf8,e9xef3dy,3,1e9xef3dy,p1p4,submissive,Non-conflict,Hard,34,45,Left,Left,True,1600.0,23:20,Left,True,1,16327.6,1,4.0,3.142857142857143,2,p1,dominant,False,True,11,1158.4375,632.875,True,26.0,29.0,-26.0,False,3,True
interactive_psychophysics,rix3vv3s,mk_3_rix3vv3s,665a1f5b7901b74f83188cf8,e9xef3dy,4,1e9xef3dy,p1p5,submissive,Conflict,Easy,0,25,Left,Right,False,11698.8,20:27,Left,,1,16037.8,1,4.0,3.142857142857143,1,p1,dominant,False,True,25,2137.416666666667,1766.666666666667,False,75.0,49.0,-75.0,False,4,True
interactive_psychophysics,rix3vv3s,mk_3_rix3vv3s,665a1f5b7901b74f83188cf8,e9xef3dy,5,1e9xef3dy,p1p6,submissive,Non-conflict,Easy,39,35,Left,Left,True,2460.6,40:30,Left,True,1,8452.3,1,4.0,3.142857142857143,2,p1,dominant,False,True,-4,1291.625,1270.7083333333333,False,47.0,58.0,-47.0,False,4,True
interactive_psychophysics,rix3vv3s,mk_3_rix3vv3s,665a1f5b7901b74f83188cf8,e9xef3dy,6,1e9xef3dy,p1p2,dominant,Non-conflict,Hard,28,50,Left,Left,True,1628.9,23:20,Left,True,1,6787.6,1,4.0,3.142857142857143,2,p1,submissive,False,True,22,999.9791666666666,4149.9375,True,31.0,30.0,-31.0,False,4,True
interactive_psychophysics,rix3vv3s,mk_3_rix3vv3s,665a1f5b7901b74f83188cf8,e9xef3dy,7,1e9xef3dy,p1p3,dominant,Conflict,Easy,5,15,Right,Left,False,6299.6,40:30,Right,,1,8050.7,1,4.0,3.142857142857143,1,p1,submissive,False,True,10,1633.2083333333337,374.9583333333337,False,59.0,53.0,-59.0,False,4,True
interactive_psychophysics,rix3vv3s,mk_3_rix3vv3s,665a1f5b7901b74f83188cf8,e9xef3dy,8,1e9xef3dy,p1p4,dominant,Non-conflict,Easy,13,10,Left,Left,True,3305.5,27:20,Left,True,1,13826.1,1,4.0,3.142857142857143,1,p1,submissive,False,True,-3,133.29166666666666,687.5625,True,63.0,75.0,-63.0,False,4,True
interactive_psychophysics,rix3vv3s,mk_3_rix3vv3s,665a1f5b7901b74f83188cf8,e9xef3dy,9,1e9xef3dy,p1p5,submissive,Non-conflict,Hard,64,24,Left,Left,True,3167.2,23:20,Left,True,1,22035.0,1,4.0,3.142857142857143,3,p1,dominant,False,True,-40,1299.9791666666667,324.93749999999955,True,10.0,11.0,10.0,True,1,False
interactive_psychophysics,rix3vv3s,mk_3_rix3vv3s,665a1f5b7901b74f83188cf8,e9xef3dy,10,1e9xef3dy,p1p6,submissive,Conflict,Easy,23,60,Left,Left,True,5911.0,40:30,Right,,1,2054.7,1,4.0,3.142857142857143,1,p1,dominant,True,False,37,1816.5625,866.5625,False,43.0,24.0,-43.0,False,4,True
interactive_psychophysics,rix3vv3s,mk_3_rix3vv3s,665a1f5b7901b74f83188cf8,e9xef3dy,11,1e9xef3dy,p1p2,submissive,Non-conflict,Easy,64,75,Right,Right,True,1781.9,20:27,Right,True,1,3572.4,1,4.0,3.142857142857143,3,p1,dominant,False,True,11,1170.7916666666667,183.2708333333336,False,14.0,19.0,-14.0,False,2,True
interactive_psychophysics,rix3vv3s,mk_3_rix3vv3s,665a1f5b7901b74f83188cf8,e9xef3dy,12,1e9xef3dy,p1p3,dominant,Non-conflict,Hard,3,31,Left,Right,False,3252.9,20:23,Left,False,1,7272.7,1,4.0,3.142857142857143,1,p1,submissive,False,True,28,1087.4791666666667,520.7916666666667,False,51.0,22.0,-51.0,False,4,True
interactive_psychophysics,rix3vv3s,mk_3_rix3vv3s,665a1f5b7901b74f83188cf8,e9xef3dy,13,1e9xef3dy,p1p4,dominant,Conflict,Easy,69,40,Left,Left,True,1618.7,40:30,Left,,1,10861.5,1,4.0,3.142857142857143,3,p1,submissive,False,True,-29,779.1875,1924.958333333333,True,17.0,16.0,17.0,True,2,False
interactive_psychophysics,rix3vv3s,mk_3_rix3vv3s,665a1f5b7901b74f83188cf8,e9xef3dy,14,1e9xef3dy,p1p5,dominant,Non-conflict,Easy,62,70,Right,Right,True,1758.2,30:40,Right,True,1,5888.2,1,4.0,3.142857142857143,3,p1,submissive,False,True,8,749.9375,566.6666666666663,True,14.0,9.0,-14.0,False,2,True
interactive_psychophysics,rix3vv3s,mk_3_rix3vv3s,665a1f5b7901b74f83188cf8,e9xef3dy,15,1e9xef3dy,p1p6,submissive,Non-conflict,Hard,14,35,Right,Right,True,1739.3,30:34,Right,True,1,4299.9,1,4.0,3.142857142857143,1,p1,dominant,False,True,21,453.9791666666666,812.6458333333335,True,45.0,23.0,-45.0,False,4,True
interactive_psychophysics,rix3vv3s,mk_3_rix3vv3s,665a1f5b7901b74f83188cf8,e9xef3dy,16,1e9xef3dy,p1p2,submissive,Conflict,Easy,68,40,Right,Right,True,2259.1,20:27,Right,,1,21038.5,1,4.0,3.142857142857143,3,p1,dominant,False,True,-28,349.8333333333333,3975.1041666666665,True,6.0,25.0,6.0,True,1,False
interactive_psychophysics,rix3vv3s,mk_3_rix3vv3s,665a1f5b7901b74f83188cf8,e9xef3dy,17,1e9xef3dy,p1p2,dominant,Conflict,Easy,26,60,Right,Right,True,1888.9,30:40,Left,,1,16454.8,1,4.0,3.142857142857143,2,p1,submissive,True,False,34,0.0,1183.3958333333337,True,47.0,13.0,-47.0,False,4,True
interactive_psychophysics,rix3vv3s,mk_3_rix3vv3s,665a1f5b7901b74f83188cf8,e9xef3dy,18,1e9xef3dy,p1p3,submissive,Non-conflict,Easy,81,95,Right,Right,True,1423.8,30:40,Right,True,1,1969.1,1,4.0,3.142857142857143,4,p1,dominant,False,True,14,662.3958333333333,1750.1458333333337,True,16.0,26.0,16.0,True,2,False
interactive_psychophysics,rix3vv3s,mk_3_rix3vv3s,665a1f5b7901b74f83188cf8,e9xef3dy,19,1e9xef3dy,p1p4,dominant,Non-conflict,Hard,70,90,Right,Right,True,1876.8,20:23,Right,True,1,3293.9,1,4.0,3.142857142857143,3,p1,submissive,False,True,20,229.10416666666663,3941.4583333333335,True,20.0,30.0,20.0,True,2,False
interactive_psychophysics,rix3vv3s,mk_3_rix3vv3s,665a1f5b7901b74f83188cf8,e9xef3dy,20,1e9xef3dy,p1p5,dominant,Conflict,Easy,23,3,Left,Left,True,2357.3,27:20,Right,,1,18018.4,1,4.0,3.142857142857143,1,p1,submissive,True,False,-20,1837.4166666666667,641.75,False,36.0,57.0,-36.0,False,4,True
interactive_psychophysics,rix3vv3s,mk_3_rix3vv3s,665a1f5b7901b74f83188cf8,e9xef3dy,21,1e9xef3dy,p1p6,dominant,Non-conflict,Easy,83,90,Right,Right,True,2011.7,20:27,Right,True,1,2307.7,1,4.0,3.142857142857143,4,p1,submissive,False,True,7,791.6458333333334,616.5416666666667,False,28.0,29.0,28.0,True,3,False
interactive_psychophysics,rix3vv3s,mk_3_rix3vv3s,665a1f5b7901b74f83188cf8,e9xef3dy,22,1e9xef3dy,p1p2,submissive,Non-conflict,Hard,31,40,Right,Right,True,2058.5,20:23,Right,True,1,7811.9,1,4.0,3.142857142857143,2,p1,dominant,False,True,9,479.1875,195.91666666666663,True,29.0,45.0,-29.0,False,3,True
interactive_psychophysics,rix3vv3s,mk_3_rix3vv3s,665a1f5b7901b74f83188cf8,e9xef3dy,23,1e9xef3dy,p1p3,submissive,Conflict,Easy,26,0,Left,Left,True,1582.5,27:20,Right,,1,8618.8,1,4.0,3.142857142857143,2,p1,dominant,True,False,-26,304.25,304.25,False,36.0,56.0,-36.0,False,4,True
interactive_psychophysics,rix3vv3s,mk_3_rix3vv3s,665a1f5b7901b74f83188cf8,e9xef3dy,24,1e9xef3dy,p1p3,submissive,Conflict,Easy,58,40,Right,Right,True,1785.7,20:27,Right,,1,16745.9,1,4.0,3.142857142857143,3,p1,dominant,False,True,-18,366.7291666666667,3991.5833333333335,True,4.0,12.0,-4.0,False,1,True
interactive_psychophysics,rix3vv3s,mk_3_rix3vv3s,665a1f5b7901b74f83188cf8,e9xef3dy,25,1e9xef3dy,p1p4,submissive,Non-conflict,Easy,14,36,Left,Left,True,1774.0,40:30,Left,True,1,5132.3,1,4.0,3.142857142857143,1,p1,dominant,False,True,22,287.39583333333337,4762.520833333333,True,39.0,30.0,-39.0,False,4,True
interactive_psychophysics,rix3vv3s,mk_3_rix3vv3s,665a1f5b7901b74f83188cf8,e9xef3dy,26,1e9xef3dy,p1p4,dominant,Conflict,Easy,36,0,Left,Left,True,2403.1,40:30,Right,,1,8425.2,1,4.0,3.142857142857143,2,p1,submissive,True,False,-36,0.0,1962.4791666666667,True,36.0,62.0,-36.0,False,4,True
interactive_psychophysics,rix3vv3s,mk_3_rix3vv3s,665a1f5b7901b74f83188cf8,e9xef3dy,27,1e9xef3dy,p1p5,dominant,Non-conflict,Hard,21,45,Right,Right,True,1658.8,20:23,Right,True,1,9151.2,1,4.0,3.142857142857143,1,p1,submissive,False,True,24,695.9791666666667,208.45833333333337,False,35.0,21.0,-35.0,False,4,True
interactive_psychophysics,rix3vv3s,mk_3_rix3vv3s,665a1f5b7901b74f83188cf8,e9xef3dy,28,1e9xef3dy,p1p5,submissive,Conflict,Easy,22,0,Left,Left,True,2536.1,27:20,Right,,1,6612.8,1,4.0,3.142857142857143,1,p1,dominant,True,False,-22,766.6458333333334,766.6458333333334,False,47.0,63.0,-47.0,False,4,True
interactive_psychophysics,rix3vv3s,mk_3_rix3vv3s,665a1f5b7901b74f83188cf8,e9xef3dy,29,1e9xef3dy,p1p6,dominant,Conflict,Easy,70,80,Right,Right,True,2163.4,30:40,Right,,1,405.3,1,4.0,3.142857142857143,3,p1,submissive,False,True,10,620.9583333333333,3062.375,True,16.0,47.0,16.0,True,2,False
interactive_psychophysics,rix3vv3s,mk_3_rix3vv3s,665a1f5b7901b74f83188cf8,e9xef3dy,30,1e9xef3dy,p1p2,dominant,Non-conflict,Easy,23,51,Right,Right,True,1851.9,30:40,Right,True,1,9938.5,1,4.0,3.142857142857143,1,p1,submissive,False,True,28,66.64583333333333,3816.7291666666665,True,53.0,39.0,-53.0,False,4,True
interactive_psychophysics,rix3vv3s,mk_3_rix3vv3s,665a1f5b7901b74f83188cf8,e9xef3dy,31,1e9xef3dy,p1p3,submissive,Non-conflict,Hard,38,65,Left,Left,True,1742.6,23:20,Left,True,1,7701.0,1,4.0,3.142857142857143,2,p1,dominant,False,True,27,,,,11.0,15.0,-11.0,False,2,True
interactive_psychophysics,rix3vv3s,mk_3_rix3vv3s,665a1f5b7901b74f83188cf8,e9xef3dy,32,1e9xef3dy,p1p4,submissive,Conflict,Easy,51,20,Left,Left,True,1890.9,40:30,Right,,1,10032.0,1,4.0,3.142857142857143,3,p1,dominant,True,False,-31,,,,6.0,32.0,-6.0,False,1,True
interactive_psychophysics,rix3vv3s,mk_3_rix3vv3s,665a1f5b7901b74f83188cf8,e9xef3dy,33,1e9xef3dy,p1p5,submissive,Non-conflict,Easy,65,75,Right,Right,True,2595.2,30:40,Right,True,1,2568.6,1,4.0,3.142857142857143,3,p1,dominant,False,True,10,,,,2.0,3.0,-2.0,False,1,True
interactive_psychophysics,rix3vv3s,mk_3_rix3vv3s,665a1f5b7901b74f83188cf8,e9xef3dy,34,1e9xef3dy,p1p6,dominant,Non-conflict,Hard,58,15,Right,Left,False,1767.0,34:30,Left,True,1,6663.7,1,4.0,3.142857142857143,3,p1,submissive,True,False,-43,,,,3.0,47.0,-3.0,False,1,True
interactive_psychophysics,rix3vv3s,mk_3_rix3vv3s,62b44f66a16d45783569fad6,7q9uiw3z,1,27q9uiw3z,p1p2,submissive,Conflict,Easy,16,60,Right,Right,True,3272.1,20:27,Left,,1,28878.6,1,5.0,2.571428571428572,1,p2,dominant,True,False,44,1941.5833333333333,633.4791666666667,True,72.0,0.0,-72.0,False,4,True
interactive_psychophysics,rix3vv3s,mk_3_rix3vv3s,62b44f66a16d45783569fad6,7q9uiw3z,2,27q9uiw3z,p2p5,submissive,Non-conflict,Easy,88,95,Right,Right,True,1703.3,20:27,Right,True,1,13687.2,1,5.0,2.571428571428572,4,p2,dominant,False,True,7,3458.395833333333,933.2708333333339,True,20.0,16.0,20.0,True,2,False
interactive_psychophysics,rix3vv3s,mk_3_rix3vv3s,62b44f66a16d45783569fad6,7q9uiw3z,3,27q9uiw3z,p2p6,dominant,Non-conflict,Hard,33,60,Right,Right,True,2085.8,30:34,Right,True,1,598.6,1,5.0,2.571428571428572,2,p2,submissive,False,True,27,3958.25,3237.2916666666665,False,38.0,25.0,-38.0,False,4,True
interactive_psychophysics,rix3vv3s,mk_3_rix3vv3s,62b44f66a16d45783569fad6,7q9uiw3z,4,27q9uiw3z,p2p4,dominant,Conflict,Easy,24,52,Right,Right,True,2204.9,30:40,undecided,,0,33082.3,0,5.0,2.571428571428572,1,p2,submissive,True,False,28,1912.625,1941.4583333333335,True,28.0,17.0,-28.0,False,3,True
interactive_psychophysics,rix3vv3s,mk_3_rix3vv3s,62b44f66a16d45783569fad6,7q9uiw3z,5,27q9uiw3z,p2p3,dominant,Non-conflict,Easy,53,63,Left,Left,True,1823.3,40:30,Right,False,1,32863.5,1,5.0,2.571428571428572,3,p2,submissive,True,False,10,2670.9375,2133.4791666666665,False,10.0,3.0,-10.0,False,1,True
interactive_psychophysics,rix3vv3s,mk_3_rix3vv3s,62b44f66a16d45783569fad6,7q9uiw3z,6,27q9uiw3z,p1p2,submissive,Non-conflict,Hard,59,80,Right,Left,False,2590.2,23:20,Left,True,1,6787.6,1,5.0,2.571428571428572,3,p2,dominant,True,False,21,5149.916666666667,4149.9375,False,31.0,30.0,31.0,True,4,False
interactive_psychophysics,rix3vv3s,mk_3_rix3vv3s,62b44f66a16d45783569fad6,7q9uiw3z,7,27q9uiw3z,p2p5,submissive,Conflict,Easy,34,20,Left,Left,True,2132.1,27:20,Right,,2,26561.3,1,5.0,2.571428571428572,2,p2,dominant,True,False,-14,3366.625,1637.5208333333333,False,29.0,49.0,-29.0,False,3,True
interactive_psychophysics,rix3vv3s,mk_3_rix3vv3s,62b44f66a16d45783569fad6,7q9uiw3z,8,27q9uiw3z,p2p6,submissive,Non-conflict,Easy,79,85,Left,Left,True,1800.8,40:30,Left,True,1,181.5,1,5.0,2.571428571428572,4,p2,dominant,False,True,6,1225.0,1062.375,True,3.0,2.0,-3.0,False,1,True
interactive_psychophysics,rix3vv3s,mk_3_rix3vv3s,62b44f66a16d45783569fad6,7q9uiw3z,9,27q9uiw3z,p2p4,dominant,Non-conflict,Hard,46,75,Left,Left,True,2396.3,23:20,Left,True,1,14182.4,1,5.0,2.571428571428572,2,p2,submissive,False,True,29,679.1875,1574.9166666666665,True,9.0,19.0,9.0,True,1,False
interactive_psychophysics,rix3vv3s,mk_3_rix3vv3s,62b44f66a16d45783569fad6,7q9uiw3z,10,27q9uiw3z,p2p3,dominant,Conflict,Easy,63,25,Left,Left,True,1778.7,27:20,Right,,1,23193.2,1,5.0,2.571428571428572,3,p2,submissive,True,False,-38,395.8333333333333,278.9791666666667,True,12.0,50.0,-12.0,False,2,True
interactive_psychophysics,rix3vv3s,mk_3_rix3vv3s,62b44f66a16d45783569fad6,7q9uiw3z,11,27q9uiw3z,p1p2,dominant,Non-conflict,Easy,78,94,Right,Right,True,1550.6,20:27,Right,True,1,3572.4,1,5.0,2.571428571428572,4,p2,submissive,False,True,16,987.5208333333331,183.2708333333336,True,14.0,19.0,14.0,True,2,False
interactive_psychophysics,rix3vv3s,mk_3_rix3vv3s,62b44f66a16d45783569fad6,7q9uiw3z,12,27q9uiw3z,p2p5,submissive,Non-conflict,Hard,73,85,Left,Left,True,2416.9,23:20,Left,True,1,18990.4,1,5.0,2.571428571428572,3,p2,dominant,False,True,12,3466.5416666666665,2125.125,False,16.0,13.0,16.0,True,2,False
interactive_psychophysics,rix3vv3s,mk_3_rix3vv3s,62b44f66a16d45783569fad6,7q9uiw3z,13,27q9uiw3z,p2p6,submissive,Conflict,Easy,19,15,Right,Right,True,2189.4,30:40,Left,,1,8497.3,1,5.0,2.571428571428572,1,p2,dominant,True,False,-4,3487.4791666666665,1641.7083333333333,False,69.0,58.0,-69.0,False,4,True
interactive_psychophysics,rix3vv3s,mk_3_rix3vv3s,62b44f66a16d45783569fad6,7q9uiw3z,14,27q9uiw3z,p2p4,submissive,Non-conflict,Easy,73,88,Right,Right,True,1556.7,30:40,Right,True,1,14783.3,1,5.0,2.571428571428572,3,p2,dominant,False,True,15,4679.145833333333,2462.520833333333,False,19.0,23.0,19.0,True,2,False
interactive_psychophysics,rix3vv3s,mk_3_rix3vv3s,62b44f66a16d45783569fad6,7q9uiw3z,15,27q9uiw3z,p2p3,dominant,Non-conflict,Hard,41,41,Right,Right,True,2205.2,30:34,Right,True,1,15968.2,1,5.0,2.571428571428572,2,p2,submissive,False,True,0,6300.104166666666,4804.479166666666,False,12.0,12.0,-12.0,False,2,True
interactive_psychophysics,rix3vv3s,mk_3_rix3vv3s,62b44f66a16d45783569fad6,7q9uiw3z,16,27q9uiw3z,p1p2,dominant,Conflict,Easy,62,15,Left,Left,True,1748.7,27:20,Right,,1,21038.5,1,5.0,2.571428571428572,3,p2,submissive,True,False,-47,4324.9375,3975.1041666666665,False,6.0,25.0,-6.0,False,1,True
interactive_psychophysics,rix3vv3s,mk_3_rix3vv3s,62b44f66a16d45783569fad6,7q9uiw3z,17,27q9uiw3z,p1p2,submissive,Conflict,Easy,73,73,Left,Left,True,1598.2,40:30,Left,,1,16454.8,1,5.0,2.571428571428572,3,p2,dominant,False,True,0,1183.3958333333337,1183.3958333333337,False,47.0,13.0,47.0,True,4,False
interactive_psychophysics,rix3vv3s,mk_3_rix3vv3s,62b44f66a16d45783569fad6,7q9uiw3z,18,27q9uiw3z,p2p5,dominant,Non-conflict,Easy,49,60,Left,Left,True,1782.0,27:20,Left,True,1,12270.1,1,5.0,2.571428571428572,2,p2,submissive,False,True,11,2825.083333333333,2787.458333333333,False,6.0,5.0,-6.0,False,1,True
interactive_psychophysics,rix3vv3s,mk_3_rix3vv3s,62b44f66a16d45783569fad6,7q9uiw3z,19,27q9uiw3z,p2p6,submissive,Non-conflict,Hard,36,60,Right,Right,True,2267.0,30:34,Right,True,1,526.4,1,5.0,2.571428571428572,2,p2,dominant,False,True,24,3804.125,3754.0416666666665,False,43.0,32.0,-43.0,False,4,True
interactive_psychophysics,rix3vv3s,mk_3_rix3vv3s,62b44f66a16d45783569fad6,7q9uiw3z,20,27q9uiw3z,p2p4,submissive,Conflict,Easy,36,30,Left,Left,True,2703.9,40:30,Right,,1,29527.7,1,5.0,2.571428571428572,2,p2,dominant,True,False,-6,1120.6666666666667,1566.6874999999998,True,19.0,27.0,-19.0,False,2,True
interactive_psychophysics,rix3vv3s,mk_3_rix3vv3s,62b44f66a16d45783569fad6,7q9uiw3z,21,27q9uiw3z,p2p3,submissive,Non-conflict,Easy,84,98,Right,Right,True,2216.6,20:27,Right,True,1,13717.6,1,5.0,2.571428571428572,4,p2,dominant,False,True,14,4079.083333333333,612.6250000000009,True,8.0,15.0,8.0,True,1,False
interactive_psychophysics,rix3vv3s,mk_3_rix3vv3s,62b44f66a16d45783569fad6,7q9uiw3z,22,27q9uiw3z,p1p2,dominant,Non-conflict,Hard,60,85,Right,Right,True,1818.0,20:23,Right,True,1,7811.9,1,5.0,2.571428571428572,3,p2,submissive,False,True,25,675.1041666666666,195.91666666666663,False,29.0,45.0,29.0,True,3,False
interactive_psychophysics,rix3vv3s,mk_3_rix3vv3s,62b44f66a16d45783569fad6,7q9uiw3z,23,27q9uiw3z,p2p5,dominant,Conflict,Easy,36,10,Left,Left,True,1963.5,40:30,Right,,1,21115.9,1,5.0,2.571428571428572,2,p2,submissive,True,False,-26,3454.125,2554.0625,False,40.0,63.0,-40.0,False,4,True
interactive_psychophysics,rix3vv3s,mk_3_rix3vv3s,62b44f66a16d45783569fad6,7q9uiw3z,24,27q9uiw3z,p2p5,dominant,Conflict,Easy,37,30,Left,Left,True,2620.3,40:30,Right,,1,13277.6,1,5.0,2.571428571428572,2,p2,submissive,True,False,-7,2437.479166666667,2137.7500000000005,False,23.0,38.0,-23.0,False,3,True
interactive_psychophysics,rix3vv3s,mk_3_rix3vv3s,62b44f66a16d45783569fad6,7q9uiw3z,25,27q9uiw3z,p2p6,dominant,Non-conflict,Easy,73,85,Right,Right,True,1871.6,30:40,Right,True,1,568.5,1,5.0,2.571428571428572,3,p2,submissive,False,True,12,4570.854166666667,1516.708333333334,False,18.0,21.0,18.0,True,2,False
interactive_psychophysics,rix3vv3s,mk_3_rix3vv3s,62b44f66a16d45783569fad6,7q9uiw3z,26,27q9uiw3z,p2p6,submissive,Conflict,Easy,58,45,Right,Right,True,1528.2,30:40,Left,,1,3546.0,1,5.0,2.571428571428572,3,p2,dominant,True,False,-13,4025.125,1225.229166666667,False,21.0,34.0,-21.0,False,3,True
interactive_psychophysics,rix3vv3s,mk_3_rix3vv3s,62b44f66a16d45783569fad6,7q9uiw3z,27,27q9uiw3z,p2p4,submissive,Non-conflict,Hard,70,72,Right,Left,False,1346.5,23:20,Right,False,1,14337.0,1,5.0,2.571428571428572,3,p2,dominant,False,True,2,6270.854166666667,1104.125000000001,False,41.0,30.0,41.0,True,4,False
interactive_psychophysics,rix3vv3s,mk_3_rix3vv3s,62b44f66a16d45783569fad6,7q9uiw3z,28,27q9uiw3z,p2p4,dominant,Conflict,Easy,85,90,Right,Right,True,1474.0,20:27,Right,,1,20255.0,1,5.0,2.571428571428572,4,p2,submissive,False,True,5,854.1875,1579.1666666666665,True,39.0,25.0,39.0,True,4,False
interactive_psychophysics,rix3vv3s,mk_3_rix3vv3s,62b44f66a16d45783569fad6,7q9uiw3z,29,27q9uiw3z,p2p3,submissive,Conflict,Easy,27,20,Right,Right,True,1518.4,30:40,Left,,1,21774.7,1,5.0,2.571428571428572,2,p2,dominant,True,False,-7,4916.583333333334,3891.375000000001,False,30.0,35.0,-30.0,False,3,True
interactive_psychophysics,rix3vv3s,mk_3_rix3vv3s,62b44f66a16d45783569fad6,7q9uiw3z,30,27q9uiw3z,p1p2,submissive,Non-conflict,Easy,76,90,Right,Right,True,1432.0,30:40,Right,True,1,9938.5,1,5.0,2.571428571428572,4,p2,dominant,False,True,14,3883.375,3816.7291666666665,False,53.0,39.0,53.0,True,4,False
interactive_psychophysics,rix3vv3s,mk_3_rix3vv3s,62b44f66a16d45783569fad6,7q9uiw3z,31,27q9uiw3z,p2p5,dominant,Non-conflict,Hard,53,60,Right,Right,True,1538.2,20:23,Right,True,1,16975.4,1,5.0,2.571428571428572,3,p2,submissive,False,True,7,,,,6.0,1.0,-6.0,False,1,True
interactive_psychophysics,rix3vv3s,mk_3_rix3vv3s,62b44f66a16d45783569fad6,7q9uiw3z,32,27q9uiw3z,p2p6,dominant,Conflict,Easy,83,83,Left,Left,True,2344.4,27:20,Left,,1,1962.7,1,5.0,2.571428571428572,4,p2,submissive,False,True,0,,,,8.0,13.0,-8.0,False,1,True
interactive_psychophysics,rix3vv3s,mk_3_rix3vv3s,62b44f66a16d45783569fad6,7q9uiw3z,33,27q9uiw3z,p2p4,dominant,Non-conflict,Easy,58,70,Right,Right,True,1513.7,20:27,Right,True,1,14402.9,1,5.0,2.571428571428572,3,p2,submissive,False,True,12,,,,19.0,14.0,-19.0,False,2,True
interactive_psychophysics,rix3vv3s,mk_3_rix3vv3s,62b44f66a16d45783569fad6,7q9uiw3z,34,27q9uiw3z,p2p3,submissive,Non-conflict,Hard,34,60,Right,Right,True,4111.8,30:34,Right,True,1,14580.2,1,5.0,2.571428571428572,2,p2,dominant,False,True,26,,,,30.0,1.0,-30.0,False,3,True
interactive_psychophysics,rix3vv3s,mk_3_rix3vv3s,5d0c90dc3382180015624ad9,ynwyrzr2,1,3ynwyrzr2,p3p4,submissive,Conflict,Easy,83,37,Right,Right,True,2727.1,30:40,undecided,,0,34562.0,0,2.25,1.0,4,p3,dominant,True,False,-46,0.0,3633.375,True,12.0,7.0,12.0,True,2,False
interactive_psychophysics,rix3vv3s,mk_3_rix3vv3s,5d0c90dc3382180015624ad9,ynwyrzr2,2,3ynwyrzr2,p1p3,submissive,Non-conflict,Easy,81,78,Right,Right,True,2277.7,30:40,Right,True,1,20949.1,1,2.25,1.0,4,p3,dominant,False,True,-3,733.2291666666667,3983.354166666666,True,4.0,7.0,-4.0,False,1,True
interactive_psychophysics,rix3vv3s,mk_3_rix3vv3s,5d0c90dc3382180015624ad9,ynwyrzr2,3,3ynwyrzr2,p3p5,dominant,Non-conflict,Hard,49,51,Left,Left,True,3445.5,23:20,Left,True,1,19447.9,1,2.25,1.0,2,p3,submissive,False,True,2,675.0,1691.708333333333,True,2.0,1.0,-2.0,False,1,True
interactive_psychophysics,rix3vv3s,mk_3_rix3vv3s,5d0c90dc3382180015624ad9,ynwyrzr2,4,3ynwyrzr2,p3p6,submissive,Conflict,Easy,57,59,Right,Right,True,2891.2,20:27,undecided,,0,1672.3,0,2.25,1.0,3,p3,dominant,True,False,2,3408.2291666666665,1666.6041666666665,False,9.0,19.0,9.0,True,1,False
interactive_psychophysics,rix3vv3s,mk_3_rix3vv3s,5d0c90dc3382180015624ad9,ynwyrzr2,5,3ynwyrzr2,p2p3,submissive,Non-conflict,Easy,63,66,Left,Left,True,2391.4,40:30,Right,False,1,32863.5,1,2.25,1.0,3,p3,dominant,True,False,3,537.4583333333334,2133.4791666666665,True,10.0,3.0,10.0,True,1,False
interactive_psychophysics,rix3vv3s,mk_3_rix3vv3s,5d0c90dc3382180015624ad9,ynwyrzr2,6,3ynwyrzr2,p3p4,submissive,Non-conflict,Hard,61,63,Right,Right,True,2361.2,20:23,Left,False,1,13507.1,1,2.25,1.0,3,p3,dominant,True,False,2,924.9375,1904.1041666666665,True,34.0,26.0,34.0,True,4,False
interactive_psychophysics,rix3vv3s,mk_3_rix3vv3s,5d0c90dc3382180015624ad9,ynwyrzr2,7,3ynwyrzr2,p1p3,submissive,Conflict,Easy,64,68,Right,Right,True,3052.3,30:40,Right,,1,8050.7,1,2.25,1.0,3,p3,dominant,False,True,4,1258.25,374.9583333333337,True,59.0,53.0,59.0,True,4,False
interactive_psychophysics,rix3vv3s,mk_3_rix3vv3s,5d0c90dc3382180015624ad9,ynwyrzr2,8,3ynwyrzr2,p3p5,submissive,Non-conflict,Easy,68,73,Left,Left,True,2036.7,40:30,Left,True,1,10283.5,1,2.25,1.0,3,p3,dominant,False,True,5,4.166666666666667,0.04166666666666696,False,8.0,3.0,8.0,True,1,False
interactive_psychophysics,rix3vv3s,mk_3_rix3vv3s,5d0c90dc3382180015624ad9,ynwyrzr2,9,3ynwyrzr2,p3p6,submissive,Non-conflict,Hard,89,100,Right,Right,True,11361.8,20:23,Right,True,1,3427.4,1,2.25,1.0,4,p3,dominant,False,True,11,4466.729166666667,1441.770833333334,False,4.0,14.0,-4.0,False,1,True
interactive_psychophysics,rix3vv3s,mk_3_rix3vv3s,5d0c90dc3382180015624ad9,ynwyrzr2,10,3ynwyrzr2,p2p3,submissive,Conflict,Easy,75,75,Right,Right,True,2370.9,20:27,Right,,1,23193.2,1,2.25,1.0,3,p3,dominant,False,True,0,674.8125,278.9791666666667,False,12.0,50.0,12.0,True,2,False
interactive_psychophysics,rix3vv3s,mk_3_rix3vv3s,5d0c90dc3382180015624ad9,ynwyrzr2,11,3ynwyrzr2,p3p4,dominant,Non-conflict,Easy,71,73,Left,Left,True,2641.5,40:30,Left,True,1,14024.4,1,2.25,1.0,3,p3,submissive,False,True,2,1791.6458333333337,983.7291666666663,True,18.0,3.0,18.0,True,2,False
interactive_psychophysics,rix3vv3s,mk_3_rix3vv3s,5d0c90dc3382180015624ad9,ynwyrzr2,12,3ynwyrzr2,p1p3,submissive,Non-conflict,Hard,54,53,Left,Right,False,2517.7,20:23,Left,False,1,7272.7,1,2.25,1.0,3,p3,dominant,False,True,-1,566.6875,520.7916666666667,True,51.0,22.0,51.0,True,4,False
interactive_psychophysics,rix3vv3s,mk_3_rix3vv3s,5d0c90dc3382180015624ad9,ynwyrzr2,13,3ynwyrzr2,p3p5,submissive,Conflict,Easy,64,61,Left,Left,True,1899.2,27:20,Left,,1,34401.2,1,2.25,1.0,3,p3,dominant,False,True,-3,1541.7083333333333,99.97916666666674,True,1.0,35.0,-1.0,False,1,True
interactive_psychophysics,rix3vv3s,mk_3_rix3vv3s,5d0c90dc3382180015624ad9,ynwyrzr2,14,3ynwyrzr2,p3p6,dominant,Non-conflict,Easy,48,52,Left,Right,False,2454.2,30:40,Right,True,1,1111.0,1,2.25,1.0,2,p3,submissive,True,False,4,399.95833333333337,662.5416666666666,True,42.0,22.0,-42.0,False,4,True
interactive_psychophysics,rix3vv3s,mk_3_rix3vv3s,5d0c90dc3382180015624ad9,ynwyrzr2,15,3ynwyrzr2,p2p3,submissive,Non-conflict,Hard,53,53,Left,Right,False,1947.6,30:34,Right,True,1,15968.2,1,2.25,1.0,3,p3,dominant,True,False,0,1495.625,4804.479166666666,True,12.0,12.0,12.0,True,2,False
interactive_psychophysics,rix3vv3s,mk_3_rix3vv3s,5d0c90dc3382180015624ad9,ynwyrzr2,16,3ynwyrzr2,p3p4,dominant,Conflict,Easy,68,71,Left,Left,True,2563.8,40:30,undecided,,0,34689.9,0,2.25,1.0,3,p3,submissive,True,False,3,3804.0208333333335,1508.1875000000005,False,11.0,31.0,-11.0,False,2,True
interactive_psychophysics,rix3vv3s,mk_3_rix3vv3s,5d0c90dc3382180015624ad9,ynwyrzr2,17,3ynwyrzr2,p3p4,submissive,Conflict,Easy,58,62,Left,Left,True,2121.8,27:20,Left,,1,23331.7,1,2.25,1.0,3,p3,dominant,False,True,4,862.5208333333333,1753.8958333333337,True,3.0,10.0,3.0,True,1,False
interactive_psychophysics,rix3vv3s,mk_3_rix3vv3s,5d0c90dc3382180015624ad9,ynwyrzr2,18,3ynwyrzr2,p1p3,dominant,Non-conflict,Easy,65,69,Right,Right,True,2080.0,30:40,Right,True,1,1969.1,1,2.25,1.0,3,p3,submissive,False,True,4,2412.541666666667,1750.1458333333337,False,16.0,26.0,-16.0,False,2,True
interactive_psychophysics,rix3vv3s,mk_3_rix3vv3s,5d0c90dc3382180015624ad9,ynwyrzr2,19,3ynwyrzr2,p3p5,submissive,Non-conflict,Hard,59,55,Left,Left,True,1777.0,34:30,Left,True,1,14820.4,1,2.25,1.0,3,p3,dominant,False,True,-4,1183.25,379.125,True,6.0,6.0,6.0,True,1,False
interactive_psychophysics,rix3vv3s,mk_3_rix3vv3s,5d0c90dc3382180015624ad9,ynwyrzr2,20,3ynwyrzr2,p3p6,dominant,Conflict,Easy,67,70,Right,Right,True,1996.6,30:40,Right,,1,1757.1,1,2.25,1.0,3,p3,submissive,False,True,3,579.2916666666666,3216.666666666667,True,11.0,23.0,11.0,True,2,False
interactive_psychophysics,rix3vv3s,mk_3_rix3vv3s,5d0c90dc3382180015624ad9,ynwyrzr2,21,3ynwyrzr2,p2p3,dominant,Non-conflict,Easy,76,83,Right,Right,True,2144.6,20:27,Right,True,1,13717.6,1,2.25,1.0,4,p3,submissive,False,True,7,4691.708333333334,612.6250000000009,False,8.0,15.0,-8.0,False,1,True
interactive_psychophysics,rix3vv3s,mk_3_rix3vv3s,5d0c90dc3382180015624ad9,ynwyrzr2,22,3ynwyrzr2,p3p4,dominant,Non-conflict,Hard,57,51,Right,Right,True,2762.3,30:34,Left,False,1,11825.4,1,2.25,1.0,3,p3,submissive,True,False,-6,399.8125,1925.2291666666665,True,23.0,4.0,23.0,True,3,False
interactive_psychophysics,rix3vv3s,mk_3_rix3vv3s,5d0c90dc3382180015624ad9,ynwyrzr2,23,3ynwyrzr2,p1p3,dominant,Conflict,Easy,62,56,Right,Right,True,2111.5,20:27,Right,,2,8618.8,1,2.25,1.0,3,p3,submissive,False,True,-6,0.0,304.25,True,36.0,56.0,36.0,True,4,False
interactive_psychophysics,rix3vv3s,mk_3_rix3vv3s,5d0c90dc3382180015624ad9,ynwyrzr2,24,3ynwyrzr2,p1p3,dominant,Conflict,Easy,62,52,Left,Left,True,3123.1,27:20,Right,,1,16745.9,1,2.25,1.0,3,p3,submissive,True,False,-10,4358.3125,3991.5833333333335,False,4.0,12.0,4.0,True,1,False
interactive_psychophysics,rix3vv3s,mk_3_rix3vv3s,5d0c90dc3382180015624ad9,ynwyrzr2,25,3ynwyrzr2,p3p5,dominant,Non-conflict,Easy,59,60,Right,Right,True,3023.0,20:27,Right,True,1,8097.7,1,2.25,1.0,3,p3,submissive,False,True,1,453.9791666666666,1958.4791666666665,True,2.0,5.0,2.0,True,1,False
interactive_psychophysics,rix3vv3s,mk_3_rix3vv3s,5d0c90dc3382180015624ad9,ynwyrzr2,26,3ynwyrzr2,p3p5,submissive,Conflict,Easy,54,51,Right,Right,True,2063.1,30:40,Left,,1,7432.8,1,2.25,1.0,3,p3,dominant,True,False,-3,1445.7916666666663,266.7708333333337,True,2.0,5.0,-2.0,False,1,True
interactive_psychophysics,rix3vv3s,mk_3_rix3vv3s,5d0c90dc3382180015624ad9,ynwyrzr2,27,3ynwyrzr2,p3p6,dominant,Non-conflict,Hard,57,54,Right,Right,True,2512.2,20:23,Right,True,1,5942.9,1,2.25,1.0,3,p3,submissive,False,True,-3,433.3541666666666,1987.4791666666665,True,2.0,32.0,2.0,True,1,False
interactive_psychophysics,rix3vv3s,mk_3_rix3vv3s,5d0c90dc3382180015624ad9,ynwyrzr2,28,3ynwyrzr2,p3p6,dominant,Conflict,Easy,52,47,Right,Right,True,2053.6,30:40,Left,,1,772.9,1,2.25,1.0,3,p3,submissive,True,False,-5,1141.4791666666663,3100.291666666668,True,12.0,16.0,-12.0,False,2,True
interactive_psychophysics,rix3vv3s,mk_3_rix3vv3s,5d0c90dc3382180015624ad9,ynwyrzr2,29,3ynwyrzr2,p2p3,dominant,Conflict,Easy,57,55,Left,Left,True,2037.1,40:30,Left,,1,21774.7,1,2.25,1.0,3,p3,submissive,False,True,-2,1025.2083333333333,3891.375000000001,True,30.0,35.0,30.0,True,3,False
interactive_psychophysics,rix3vv3s,mk_3_rix3vv3s,5d0c90dc3382180015624ad9,ynwyrzr2,30,3ynwyrzr2,p3p4,submissive,Non-conflict,Easy,80,78,Left,Left,True,2496.2,27:20,Left,True,1,7054.4,1,2.25,1.0,4,p3,dominant,False,True,-2,833.2916666666666,2491.6666666666665,True,4.0,7.0,4.0,True,1,False
interactive_psychophysics,rix3vv3s,mk_3_rix3vv3s,5d0c90dc3382180015624ad9,ynwyrzr2,31,3ynwyrzr2,p1p3,dominant,Non-conflict,Hard,49,50,Left,Left,True,5512.6,23:20,Left,True,1,7701.0,1,2.25,1.0,2,p3,submissive,False,True,1,,,,11.0,15.0,11.0,True,2,False
interactive_psychophysics,rix3vv3s,mk_3_rix3vv3s,5d0c90dc3382180015624ad9,ynwyrzr2,32,3ynwyrzr2,p3p5,dominant,Conflict,Easy,60,49,Left,Left,True,1900.2,27:20,Left,,1,30085.1,1,2.25,1.0,3,p3,submissive,False,True,-11,,,,3.0,13.0,-3.0,False,1,True
interactive_psychophysics,rix3vv3s,mk_3_rix3vv3s,5d0c90dc3382180015624ad9,ynwyrzr2,33,3ynwyrzr2,p3p6,submissive,Non-conflict,Easy,100,100,Left,Left,True,1731.8,27:20,Left,True,1,3312.0,1,2.25,1.0,4,p3,dominant,False,True,0,,,,29.0,25.0,29.0,True,3,False
interactive_psychophysics,rix3vv3s,mk_3_rix3vv3s,5d0c90dc3382180015624ad9,ynwyrzr2,34,3ynwyrzr2,p2p3,dominant,Non-conflict,Hard,64,61,Right,Right,True,1864.4,30:34,Right,True,1,14580.2,1,2.25,1.0,3,p3,submissive,False,True,-3,,,,30.0,1.0,30.0,True,3,False
interactive_psychophysics,rix3vv3s,mk_3_rix3vv3s,629f2d6a8d790f69182e8b3e,dp494vmm,1,4dp494vmm,p3p4,dominant,Conflict,Easy,71,30,Left,Left,True,3620.2,40:30,undecided,,0,34562.0,0,4.625,2.571428571428572,3,p4,submissive,True,False,-41,3633.375,3633.375,False,12.0,7.0,-12.0,False,2,True
interactive_psychophysics,rix3vv3s,mk_3_rix3vv3s,629f2d6a8d790f69182e8b3e,dp494vmm,2,4dp494vmm,p4p6,dominant,Non-conflict,Easy,50,89,,Left,,15517.4,40:30,Left,True,1,2040.3,1,4.625,2.571428571428572,2,p4,submissive,True,False,39,808.3541666666667,579.2083333333335,False,39.0,5.0,-39.0,False,4,True
interactive_psychophysics,rix3vv3s,mk_3_rix3vv3s,629f2d6a8d790f69182e8b3e,dp494vmm,3,4dp494vmm,p1p4,dominant,Non-conflict,Hard,60,74,Left,Left,True,2795.6,23:20,Left,True,1,16327.6,1,4.625,2.571428571428572,3,p4,submissive,False,True,14,1791.3125,632.875,False,26.0,29.0,26.0,True,3,False
interactive_psychophysics,rix3vv3s,mk_3_rix3vv3s,629f2d6a8d790f69182e8b3e,dp494vmm,4,4dp494vmm,p2p4,submissive,Conflict,Easy,52,35,Left,Left,True,3642.9,40:30,undecided,,0,33082.3,0,4.625,2.571428571428572,3,p4,dominant,True,False,-17,3854.0833333333335,1941.4583333333335,False,28.0,17.0,28.0,True,3,False
interactive_psychophysics,rix3vv3s,mk_3_rix3vv3s,629f2d6a8d790f69182e8b3e,dp494vmm,5,4dp494vmm,p4p5,submissive,Non-conflict,Easy,54,75,Left,Left,True,2484.3,40:30,Left,True,1,18102.4,1,4.625,2.571428571428572,3,p4,dominant,False,True,21,2420.875,1033.5416666666667,False,2.0,21.0,2.0,True,1,False
interactive_psychophysics,rix3vv3s,mk_3_rix3vv3s,629f2d6a8d790f69182e8b3e,dp494vmm,6,4dp494vmm,p3p4,dominant,Non-conflict,Hard,27,37,Left,Right,False,5943.9,20:23,Left,False,1,13507.1,1,4.625,2.571428571428572,2,p4,submissive,False,True,10,2829.0416666666665,1904.1041666666665,False,34.0,26.0,-34.0,False,4,True
interactive_psychophysics,rix3vv3s,mk_3_rix3vv3s,629f2d6a8d790f69182e8b3e,dp494vmm,7,4dp494vmm,p4p6,dominant,Conflict,Easy,56,63,Left,Left,True,4768.6,40:30,Right,,1,1060.0,1,4.625,2.571428571428572,3,p4,submissive,True,False,7,1749.9166666666663,3021.062500000001,True,20.0,19.0,-20.0,False,2,True
interactive_psychophysics,rix3vv3s,mk_3_rix3vv3s,629f2d6a8d790f69182e8b3e,dp494vmm,8,4dp494vmm,p1p4,submissive,Non-conflict,Easy,76,85,Left,Left,True,2432.8,27:20,Left,True,1,13826.1,1,4.625,2.571428571428572,4,p4,dominant,False,True,9,820.8541666666666,687.5625,False,63.0,75.0,63.0,True,4,False
interactive_psychophysics,rix3vv3s,mk_3_rix3vv3s,629f2d6a8d790f69182e8b3e,dp494vmm,9,4dp494vmm,p2p4,submissive,Non-conflict,Hard,37,56,Left,Left,True,3848.9,23:20,Left,True,1,14182.4,1,4.625,2.571428571428572,2,p4,dominant,False,True,19,2254.1041666666665,1574.9166666666665,False,9.0,19.0,-9.0,False,1,True
interactive_psychophysics,rix3vv3s,mk_3_rix3vv3s,629f2d6a8d790f69182e8b3e,dp494vmm,10,4dp494vmm,p4p5,submissive,Conflict,Easy,55,60,Left,Left,True,12292.7,40:30,Right,,1,15250.0,1,4.625,2.571428571428572,3,p4,dominant,True,False,5,224.875,199.5,False,4.0,13.0,-4.0,False,1,True
interactive_psychophysics,rix3vv3s,mk_3_rix3vv3s,629f2d6a8d790f69182e8b3e,dp494vmm,11,4dp494vmm,p3p4,submissive,Non-conflict,Easy,53,70,Left,Left,True,6105.8,40:30,Left,True,1,14024.4,1,4.625,2.571428571428572,3,p4,dominant,False,True,17,2775.375,983.7291666666663,False,18.0,3.0,-18.0,False,2,True
interactive_psychophysics,rix3vv3s,mk_3_rix3vv3s,629f2d6a8d790f69182e8b3e,dp494vmm,12,4dp494vmm,p4p6,dominant,Non-conflict,Hard,74,80,Right,Right,True,2569.0,20:23,Right,True,1,4520.4,1,4.625,2.571428571428572,3,p4,submissive,False,True,6,3337.479166666667,3337.479166666667,False,10.0,4.0,10.0,True,1,False
interactive_psychophysics,rix3vv3s,mk_3_rix3vv3s,629f2d6a8d790f69182e8b3e,dp494vmm,13,4dp494vmm,p1p4,submissive,Conflict,Easy,52,56,Right,Right,True,2142.7,30:40,Left,,1,10861.5,1,4.625,2.571428571428572,3,p4,dominant,True,False,4,2704.145833333333,1924.958333333333,False,17.0,16.0,-17.0,False,2,True
interactive_psychophysics,rix3vv3s,mk_3_rix3vv3s,629f2d6a8d790f69182e8b3e,dp494vmm,14,4dp494vmm,p2p4,dominant,Non-conflict,Easy,54,65,Right,Right,True,2153.8,30:40,Right,True,1,14783.3,1,4.625,2.571428571428572,3,p4,submissive,False,True,11,2216.625,2462.520833333333,True,19.0,23.0,-19.0,False,2,True
interactive_psychophysics,rix3vv3s,mk_3_rix3vv3s,629f2d6a8d790f69182e8b3e,dp494vmm,15,4dp494vmm,p4p5,submissive,Non-conflict,Hard,33,49,Right,Right,True,3171.2,30:34,Right,True,1,16460.6,1,4.625,2.571428571428572,2,p4,dominant,False,True,16,1845.7291666666667,983.2708333333334,False,21.0,1.0,-21.0,False,3,True
interactive_psychophysics,rix3vv3s,mk_3_rix3vv3s,629f2d6a8d790f69182e8b3e,dp494vmm,16,4dp494vmm,p3p4,submissive,Conflict,Easy,79,40,Right,Right,True,1965.4,30:40,undecided,,0,34689.9,0,4.625,2.571428571428572,4,p4,dominant,True,False,-39,2295.833333333333,1508.1875000000005,True,11.0,31.0,11.0,True,2,False
interactive_psychophysics,rix3vv3s,mk_3_rix3vv3s,629f2d6a8d790f69182e8b3e,dp494vmm,17,4dp494vmm,p3p4,dominant,Conflict,Easy,55,52,Right,Right,True,3069.6,20:27,Left,,1,23331.7,1,4.625,2.571428571428572,3,p4,submissive,True,False,-3,2616.416666666667,1753.8958333333337,False,3.0,10.0,-3.0,False,1,True
interactive_psychophysics,rix3vv3s,mk_3_rix3vv3s,629f2d6a8d790f69182e8b3e,dp494vmm,18,4dp494vmm,p4p6,submissive,Non-conflict,Easy,58,70,Left,Left,True,3097.1,40:30,Left,True,1,6848.9,1,4.625,2.571428571428572,3,p4,dominant,False,True,12,2854.125,470.8125,False,0.0,24.0,0.0,False,1,True
interactive_psychophysics,rix3vv3s,mk_3_rix3vv3s,629f2d6a8d790f69182e8b3e,dp494vmm,19,4dp494vmm,p1p4,submissive,Non-conflict,Hard,50,60,Right,Right,True,2660.6,20:23,Right,True,1,3293.9,1,4.625,2.571428571428572,2,p4,dominant,False,True,10,4170.5625,3941.4583333333335,False,20.0,30.0,-20.0,False,2,True
interactive_psychophysics,rix3vv3s,mk_3_rix3vv3s,629f2d6a8d790f69182e8b3e,dp494vmm,20,4dp494vmm,p2p4,dominant,Conflict,Easy,55,57,Right,Right,True,2468.9,30:40,Right,,1,29527.7,1,4.625,2.571428571428572,3,p4,submissive,False,True,2,2687.3541666666665,1566.6874999999998,False,19.0,27.0,19.0,True,2,False
interactive_psychophysics,rix3vv3s,mk_3_rix3vv3s,629f2d6a8d790f69182e8b3e,dp494vmm,21,4dp494vmm,p4p5,dominant,Non-conflict,Easy,45,56,Right,Right,True,3438.5,30:40,Right,True,1,14388.4,1,4.625,2.571428571428572,2,p4,submissive,False,True,11,4966.708333333333,4325.041666666666,False,15.0,7.0,-15.0,False,2,True
interactive_psychophysics,rix3vv3s,mk_3_rix3vv3s,629f2d6a8d790f69182e8b3e,dp494vmm,22,4dp494vmm,p3p4,submissive,Non-conflict,Hard,34,47,Left,Right,False,2649.3,30:34,Left,False,1,11825.4,1,4.625,2.571428571428572,2,p4,dominant,False,True,13,2325.0416666666665,1925.2291666666665,False,23.0,4.0,-23.0,False,3,True
interactive_psychophysics,rix3vv3s,mk_3_rix3vv3s,629f2d6a8d790f69182e8b3e,dp494vmm,23,4dp494vmm,p4p6,submissive,Conflict,Easy,53,56,Left,Left,True,1966.7,40:30,Right,,1,3323.4,1,4.625,2.571428571428572,3,p4,dominant,True,False,3,2912.458333333333,2175.4791666666665,False,4.0,34.0,-4.0,False,1,True
interactive_psychophysics,rix3vv3s,mk_3_rix3vv3s,629f2d6a8d790f69182e8b3e,dp494vmm,24,4dp494vmm,p4p6,dominant,Conflict,Easy,78,73,Right,Right,True,2242.0,20:27,Right,,1,5256.4,1,4.625,2.571428571428572,4,p4,submissive,False,True,-5,2525.0416666666665,1179.2291666666665,False,26.0,35.0,26.0,True,3,False
interactive_psychophysics,rix3vv3s,mk_3_rix3vv3s,629f2d6a8d790f69182e8b3e,dp494vmm,25,4dp494vmm,p1p4,dominant,Non-conflict,Easy,53,66,Left,Left,True,2055.1,40:30,Left,True,1,5132.3,1,4.625,2.571428571428572,3,p4,submissive,False,True,13,5049.916666666666,4762.520833333333,False,39.0,30.0,39.0,True,4,False
interactive_psychophysics,rix3vv3s,mk_3_rix3vv3s,629f2d6a8d790f69182e8b3e,dp494vmm,26,4dp494vmm,p1p4,submissive,Conflict,Easy,72,62,Right,Right,True,2006.7,30:40,Right,,1,8425.2,1,4.625,2.571428571428572,3,p4,dominant,False,True,-10,1962.4791666666667,1962.4791666666667,False,36.0,62.0,36.0,True,4,False
interactive_psychophysics,rix3vv3s,mk_3_rix3vv3s,629f2d6a8d790f69182e8b3e,dp494vmm,27,4dp494vmm,p2p4,dominant,Non-conflict,Hard,29,42,Right,Left,False,4438.4,23:20,Right,False,1,14337.0,1,4.625,2.571428571428572,2,p4,submissive,False,True,13,5166.729166666666,1104.125000000001,True,41.0,30.0,-41.0,False,4,True
interactive_psychophysics,rix3vv3s,mk_3_rix3vv3s,629f2d6a8d790f69182e8b3e,dp494vmm,28,4dp494vmm,p2p4,submissive,Conflict,Easy,46,65,Right,Left,False,7321.9,27:20,Right,,1,20255.0,1,4.625,2.571428571428572,2,p4,dominant,False,True,19,2433.3541666666665,1579.1666666666665,False,39.0,25.0,-39.0,False,4,True
interactive_psychophysics,rix3vv3s,mk_3_rix3vv3s,629f2d6a8d790f69182e8b3e,dp494vmm,29,4dp494vmm,p4p5,dominant,Conflict,Easy,49,30,Right,Right,True,2747.9,30:40,Left,,1,8201.1,1,4.625,2.571428571428572,2,p4,submissive,True,False,-19,2470.7916666666665,2224.9791666666665,False,18.0,42.0,-18.0,False,2,True
interactive_psychophysics,rix3vv3s,mk_3_rix3vv3s,629f2d6a8d790f69182e8b3e,dp494vmm,30,4dp494vmm,p3p4,dominant,Non-conflict,Easy,76,85,Left,Left,True,1897.9,27:20,Left,True,1,7054.4,1,4.625,2.571428571428572,4,p4,submissive,False,True,9,3324.958333333333,2491.6666666666665,False,4.0,7.0,-4.0,False,1,True
interactive_psychophysics,rix3vv3s,mk_3_rix3vv3s,629f2d6a8d790f69182e8b3e,dp494vmm,31,4dp494vmm,p4p6,submissive,Non-conflict,Hard,44,60,Right,Right,True,6261.8,30:34,Right,True,1,1842.8,1,4.625,2.571428571428572,2,p4,dominant,False,True,16,,,,12.0,1.0,-12.0,False,2,True
interactive_psychophysics,rix3vv3s,mk_3_rix3vv3s,629f2d6a8d790f69182e8b3e,dp494vmm,32,4dp494vmm,p1p4,dominant,Conflict,Easy,57,52,Right,Right,True,2203.5,30:40,Right,,1,10032.0,1,4.625,2.571428571428572,3,p4,submissive,False,True,-5,,,,6.0,32.0,6.0,True,1,False
interactive_psychophysics,rix3vv3s,mk_3_rix3vv3s,629f2d6a8d790f69182e8b3e,dp494vmm,33,4dp494vmm,p2p4,submissive,Non-conflict,Easy,77,84,Right,Right,True,2639.0,20:27,Right,True,1,14402.9,1,4.625,2.571428571428572,4,p4,dominant,False,True,7,,,,19.0,14.0,19.0,True,2,False
interactive_psychophysics,rix3vv3s,mk_3_rix3vv3s,629f2d6a8d790f69182e8b3e,dp494vmm,34,4dp494vmm,p4p5,dominant,Non-conflict,Hard,48,53,Left,Right,False,3325.4,30:34,Left,False,1,13150.6,1,4.625,2.571428571428572,2,p4,submissive,False,True,5,,,,4.0,6.0,-4.0,False,1,True
interactive_psychophysics,rix3vv3s,mk_3_rix3vv3s,611a8d23c1d17506a23df589,ayoq4ege,1,5ayoq4ege,p5p6,submissive,Conflict,Easy,53,56,Left,Left,True,5898.4,40:30,Left,,1,9211.9,1,5.375,1.4285714285714286,3,p5,dominant,False,True,3,,,,23.0,36.0,-23.0,False,3,True
interactive_psychophysics,rix3vv3s,mk_3_rix3vv3s,611a8d23c1d17506a23df589,ayoq4ege,2,5ayoq4ege,p2p5,dominant,Non-conflict,Easy,68,79,Right,Right,True,4967.1,20:27,Right,True,1,13687.2,1,5.375,1.4285714285714286,3,p5,submissive,False,True,11,4391.666666666667,933.2708333333339,False,20.0,16.0,-20.0,False,2,True
interactive_psychophysics,rix3vv3s,mk_3_rix3vv3s,611a8d23c1d17506a23df589,ayoq4ege,3,5ayoq4ege,p3p5,submissive,Non-conflict,Hard,51,52,Left,Left,True,4476.0,23:20,Left,True,1,19447.9,1,5.375,1.4285714285714286,3,p5,dominant,False,True,1,2366.708333333333,1691.708333333333,False,2.0,1.0,2.0,True,1,False
interactive_psychophysics,rix3vv3s,mk_3_rix3vv3s,611a8d23c1d17506a23df589,ayoq4ege,4,5ayoq4ege,p1p5,dominant,Conflict,Easy,75,74,Left,Left,True,4162.1,27:20,Left,,1,16037.8,1,5.375,1.4285714285714286,3,p5,submissive,False,True,-1,370.75,1766.666666666667,True,75.0,49.0,75.0,True,4,False
interactive_psychophysics,rix3vv3s,mk_3_rix3vv3s,611a8d23c1d17506a23df589,ayoq4ege,5,5ayoq4ege,p4p5,dominant,Non-conflict,Easy,52,54,Left,Left,True,4278.5,40:30,Left,True,1,18102.4,1,5.375,1.4285714285714286,3,p5,submissive,False,True,2,1387.3333333333333,1033.5416666666667,True,2.0,21.0,-2.0,False,1,True
interactive_psychophysics,rix3vv3s,mk_3_rix3vv3s,611a8d23c1d17506a23df589,ayoq4ege,6,5ayoq4ege,p5p6,submissive,Non-conflict,Hard,52,58,Left,Right,False,5456.6,20:23,Right,True,1,8990.8,1,5.375,1.4285714285714286,3,p5,dominant,True,False,6,0.0,2587.645833333333,True,9.0,7.0,-9.0,False,1,True
interactive_psychophysics,rix3vv3s,mk_3_rix3vv3s,611a8d23c1d17506a23df589,ayoq4ege,7,5ayoq4ege,p2p5,dominant,Conflict,Easy,63,69,Right,,False,3617.0,,Right,,2,26561.3,1,5.375,1.4285714285714286,3,p5,submissive,False,True,6,1729.1041666666667,1637.5208333333333,True,29.0,49.0,29.0,True,3,False
interactive_psychophysics,rix3vv3s,mk_3_rix3vv3s,611a8d23c1d17506a23df589,ayoq4ege,8,5ayoq4ege,p3p5,dominant,Non-conflict,Easy,60,70,Left,Left,True,3801.6,40:30,Left,True,1,10283.5,1,5.375,1.4285714285714286,3,p5,submissive,False,True,10,4.125,0.04166666666666696,True,8.0,3.0,-8.0,False,1,True
interactive_psychophysics,rix3vv3s,mk_3_rix3vv3s,611a8d23c1d17506a23df589,ayoq4ege,9,5ayoq4ege,p1p5,dominant,Non-conflict,Hard,54,35,Right,Left,False,5092.3,23:20,Left,True,1,22035.0,1,5.375,1.4285714285714286,3,p5,submissive,True,False,-19,1624.9166666666663,324.93749999999955,False,10.0,11.0,-10.0,False,1,True
interactive_psychophysics,rix3vv3s,mk_3_rix3vv3s,611a8d23c1d17506a23df589,ayoq4ege,10,5ayoq4ege,p4p5,dominant,Conflict,Easy,59,73,Right,Right,True,3018.2,30:40,Right,,1,15250.0,1,5.375,1.4285714285714286,3,p5,submissive,False,True,14,25.375,199.5,True,4.0,13.0,4.0,True,1,False
interactive_psychophysics,rix3vv3s,mk_3_rix3vv3s,611a8d23c1d17506a23df589,ayoq4ege,11,5ayoq4ege,p5p6,dominant,Non-conflict,Easy,56,74,Right,Right,True,4091.6,30:40,Right,True,1,6977.3,1,5.375,1.4285714285714286,3,p5,submissive,False,True,18,3429.145833333333,2195.729166666667,False,19.0,9.0,-19.0,False,2,True
interactive_psychophysics,rix3vv3s,mk_3_rix3vv3s,611a8d23c1d17506a23df589,ayoq4ege,12,5ayoq4ege,p2p5,dominant,Non-conflict,Hard,57,72,Left,Left,True,4051.3,23:20,Left,True,1,18990.4,1,5.375,1.4285714285714286,3,p5,submissive,False,True,15,1341.4166666666667,2125.125,True,16.0,13.0,-16.0,False,2,True
interactive_psychophysics,rix3vv3s,mk_3_rix3vv3s,611a8d23c1d17506a23df589,ayoq4ege,13,5ayoq4ege,p3p5,dominant,Conflict,Easy,65,26,Right,Right,True,2660.9,20:27,Left,,1,34401.2,1,5.375,1.4285714285714286,3,p5,submissive,True,False,-39,1641.6875,99.97916666666674,False,1.0,35.0,1.0,True,1,False
interactive_psychophysics,rix3vv3s,mk_3_rix3vv3s,611a8d23c1d17506a23df589,ayoq4ege,14,5ayoq4ege,p1p5,submissive,Non-conflict,Easy,76,79,Right,Right,True,3605.4,30:40,Right,True,1,5888.2,1,5.375,1.4285714285714286,4,p5,dominant,False,True,3,1316.6041666666663,566.6666666666663,False,14.0,9.0,14.0,True,2,False
interactive_psychophysics,rix3vv3s,mk_3_rix3vv3s,611a8d23c1d17506a23df589,ayoq4ege,15,5ayoq4ege,p4p5,dominant,Non-conflict,Hard,54,50,Right,Right,True,4769.4,30:34,Right,True,1,16460.6,1,5.375,1.4285714285714286,3,p5,submissive,False,True,-4,862.4583333333334,983.2708333333334,True,21.0,1.0,21.0,True,3,False
interactive_psychophysics,rix3vv3s,mk_3_rix3vv3s,611a8d23c1d17506a23df589,ayoq4ege,16,5ayoq4ege,p5p6,dominant,Conflict,Easy,53,56,Left,Left,True,3413.0,27:20,Left,,1,1790.5,1,5.375,1.4285714285714286,3,p5,submissive,False,True,3,695.7291666666666,220.9375,True,13.0,3.0,13.0,True,2,False
interactive_psychophysics,rix3vv3s,mk_3_rix3vv3s,611a8d23c1d17506a23df589,ayoq4ege,17,5ayoq4ege,p5p6,submissive,Conflict,Easy,58,33,Right,Right,True,3944.1,20:27,Left,,1,771.8,1,5.375,1.4285714285714286,3,p5,dominant,True,False,-25,762.5625,2208.25,True,4.0,24.0,4.0,True,1,False
interactive_psychophysics,rix3vv3s,mk_3_rix3vv3s,611a8d23c1d17506a23df589,ayoq4ege,18,5ayoq4ege,p2p5,submissive,Non-conflict,Easy,55,65,Left,Left,True,4687.0,27:20,Left,True,1,12270.1,1,5.375,1.4285714285714286,3,p5,dominant,False,True,10,37.625,2787.458333333333,True,6.0,5.0,6.0,True,1,False
interactive_psychophysics,rix3vv3s,mk_3_rix3vv3s,611a8d23c1d17506a23df589,ayoq4ege,19,5ayoq4ege,p3p5,dominant,Non-conflict,Hard,53,61,Left,Left,True,4421.0,34:30,Left,True,1,14820.4,1,5.375,1.4285714285714286,3,p5,submissive,False,True,8,1562.375,379.125,False,6.0,6.0,-6.0,False,1,True
interactive_psychophysics,rix3vv3s,mk_3_rix3vv3s,611a8d23c1d17506a23df589,ayoq4ege,20,5ayoq4ege,p1p5,submissive,Conflict,Easy,59,60,Right,Right,True,3313.9,20:27,Right,,1,18018.4,1,5.375,1.4285714285714286,3,p5,dominant,False,True,1,1195.6666666666667,641.75,True,36.0,57.0,36.0,True,4,False
interactive_psychophysics,rix3vv3s,mk_3_rix3vv3s,611a8d23c1d17506a23df589,ayoq4ege,21,5ayoq4ege,p4p5,submissive,Non-conflict,Easy,60,63,Right,Right,True,3319.2,30:40,Right,True,1,14388.4,1,5.375,1.4285714285714286,3,p5,dominant,False,True,3,641.6666666666667,4325.041666666666,True,15.0,7.0,15.0,True,2,False
interactive_psychophysics,rix3vv3s,mk_3_rix3vv3s,611a8d23c1d17506a23df589,ayoq4ege,22,5ayoq4ege,p5p6,dominant,Non-conflict,Hard,65,68,Right,Right,True,2913.9,20:23,Right,True,1,6301.9,1,5.375,1.4285714285714286,3,p5,submissive,False,True,3,1095.5625,662.6875,True,12.0,21.0,12.0,True,2,False
interactive_psychophysics,rix3vv3s,mk_3_rix3vv3s,611a8d23c1d17506a23df589,ayoq4ege,23,5ayoq4ege,p2p5,submissive,Conflict,Easy,76,73,Right,Right,True,3026.7,30:40,Right,,1,21115.9,1,5.375,1.4285714285714286,4,p5,dominant,False,True,-3,900.0625,2554.0625,True,40.0,63.0,40.0,True,4,False
interactive_psychophysics,rix3vv3s,mk_3_rix3vv3s,611a8d23c1d17506a23df589,ayoq4ege,24,5ayoq4ege,p2p5,submissive,Conflict,Easy,60,68,Right,Right,True,2193.8,30:40,Right,,1,13277.6,1,5.375,1.4285714285714286,3,p5,dominant,False,True,8,299.7291666666667,2137.7500000000005,True,23.0,38.0,23.0,True,3,False
interactive_psychophysics,rix3vv3s,mk_3_rix3vv3s,611a8d23c1d17506a23df589,ayoq4ege,25,5ayoq4ege,p3p5,submissive,Non-conflict,Easy,57,65,Right,Right,True,3228.6,20:27,Right,True,1,8097.7,1,5.375,1.4285714285714286,3,p5,dominant,False,True,8,2412.458333333333,1958.4791666666665,False,2.0,5.0,-2.0,False,1,True
interactive_psychophysics,rix3vv3s,mk_3_rix3vv3s,611a8d23c1d17506a23df589,ayoq4ege,26,5ayoq4ege,p3p5,dominant,Conflict,Easy,56,56,Left,Left,True,3000.1,40:30,Left,,1,7432.8,1,5.375,1.4285714285714286,3,p5,submissive,False,True,0,1712.5625,266.7708333333337,False,2.0,5.0,2.0,True,1,False
interactive_psychophysics,rix3vv3s,mk_3_rix3vv3s,611a8d23c1d17506a23df589,ayoq4ege,27,5ayoq4ege,p1p5,submissive,Non-conflict,Hard,56,66,Right,Right,True,3342.7,20:23,Right,True,1,9151.2,1,5.375,1.4285714285714286,3,p5,dominant,False,True,10,487.52083333333337,208.45833333333337,True,35.0,21.0,35.0,True,4,False
interactive_psychophysics,rix3vv3s,mk_3_rix3vv3s,611a8d23c1d17506a23df589,ayoq4ege,28,5ayoq4ege,p1p5,dominant,Conflict,Easy,69,63,Right,Right,True,2879.9,20:27,Right,,1,6612.8,1,5.375,1.4285714285714286,3,p5,submissive,False,True,-6,0.0,766.6458333333334,True,47.0,63.0,47.0,True,4,False
interactive_psychophysics,rix3vv3s,mk_3_rix3vv3s,611a8d23c1d17506a23df589,ayoq4ege,29,5ayoq4ege,p4p5,submissive,Conflict,Easy,67,72,Left,Left,True,2500.0,40:30,Left,,1,8201.1,1,5.375,1.4285714285714286,3,p5,dominant,False,True,5,245.8125,2224.9791666666665,True,18.0,42.0,18.0,True,2,False
interactive_psychophysics,rix3vv3s,mk_3_rix3vv3s,611a8d23c1d17506a23df589,ayoq4ege,30,5ayoq4ege,p5p6,submissive,Non-conflict,Easy,70,58,Right,Right,True,2606.3,20:27,Right,True,1,414.7,1,5.375,1.4285714285714286,3,p5,dominant,False,True,-12,825.0208333333333,2508.3125,True,13.0,4.0,13.0,True,2,False
interactive_psychophysics,rix3vv3s,mk_3_rix3vv3s,611a8d23c1d17506a23df589,ayoq4ege,31,5ayoq4ege,p2p5,submissive,Non-conflict,Hard,59,61,Right,Right,True,3055.0,20:23,Right,True,1,16975.4,1,5.375,1.4285714285714286,3,p5,dominant,False,True,2,,,,6.0,1.0,6.0,True,1,False
interactive_psychophysics,rix3vv3s,mk_3_rix3vv3s,611a8d23c1d17506a23df589,ayoq4ege,32,5ayoq4ege,p3p5,submissive,Conflict,Easy,63,36,Right,Right,True,2566.8,20:27,Left,,1,30085.1,1,5.375,1.4285714285714286,3,p5,dominant,True,False,-27,,,,3.0,13.0,3.0,True,1,False
interactive_psychophysics,rix3vv3s,mk_3_rix3vv3s,611a8d23c1d17506a23df589,ayoq4ege,33,5ayoq4ege,p1p5,dominant,Non-conflict,Easy,67,78,Right,Right,True,2478.7,30:40,Right,True,1,2568.6,1,5.375,1.4285714285714286,3,p5,submissive,False,True,11,,,,2.0,3.0,2.0,True,1,False
interactive_psychophysics,rix3vv3s,mk_3_rix3vv3s,611a8d23c1d17506a23df589,ayoq4ege,34,5ayoq4ege,p4p5,submissive,Non-conflict,Hard,52,59,Left,Right,False,4157.3,30:34,Left,False,1,13150.6,1,5.375,1.4285714285714286,3,p5,dominant,False,True,7,,,,4.0,6.0,4.0,True,1,False
interactive_psychophysics,rix3vv3s,mk_3_rix3vv3s,65031d5ca9f619d9e0412f0a,x39syjaw,1,6x39syjaw,p5p6,dominant,Conflict,Easy,76,92,Left,Right,False,8111.5,30:40,Left,,1,9211.9,1,5.0,3.7142857142857135,4,p6,submissive,False,True,16,,,,23.0,36.0,23.0,True,3,False
interactive_psychophysics,rix3vv3s,mk_3_rix3vv3s,65031d5ca9f619d9e0412f0a,x39syjaw,2,6x39syjaw,p4p6,submissive,Non-conflict,Easy,89,94,Left,Left,True,2963.2,40:30,Left,True,1,2040.3,1,5.0,3.7142857142857135,4,p6,dominant,False,True,5,229.1458333333333,579.2083333333335,True,39.0,5.0,39.0,True,4,False
interactive_psychophysics,rix3vv3s,mk_3_rix3vv3s,65031d5ca9f619d9e0412f0a,x39syjaw,3,6x39syjaw,p2p6,submissive,Non-conflict,Hard,71,35,Right,Right,True,3356.0,30:34,Right,True,1,598.6,1,5.0,3.7142857142857135,3,p6,dominant,False,True,-36,720.9583333333334,3237.2916666666665,True,38.0,25.0,38.0,True,4,False
interactive_psychophysics,rix3vv3s,mk_3_rix3vv3s,65031d5ca9f619d9e0412f0a,x39syjaw,4,6x39syjaw,p3p6,dominant,Conflict,Easy,48,40,Left,Left,True,4698.0,27:20,undecided,,0,1672.3,0,5.0,3.7142857142857135,2,p6,submissive,True,False,-8,1741.625,1666.6041666666665,True,9.0,19.0,-9.0,False,1,True
interactive_psychophysics,rix3vv3s,mk_3_rix3vv3s,65031d5ca9f619d9e0412f0a,x39syjaw,5,6x39syjaw,p1p6,dominant,Non-conflict,Easy,86,93,Left,Left,True,4744.4,40:30,Left,True,1,8452.3,1,5.0,3.7142857142857135,4,p6,submissive,False,True,7,20.916666666666668,1270.7083333333333,True,47.0,58.0,47.0,True,4,False
interactive_psychophysics,rix3vv3s,mk_3_rix3vv3s,65031d5ca9f619d9e0412f0a,x39syjaw,6,6x39syjaw,p5p6,dominant,Non-conflict,Hard,61,65,Right,Right,True,4056.8,20:23,Right,True,1,8990.8,1,5.0,3.7142857142857135,3,p6,submissive,False,True,4,2587.645833333333,2587.645833333333,False,9.0,7.0,9.0,True,1,False
interactive_psychophysics,rix3vv3s,mk_3_rix3vv3s,65031d5ca9f619d9e0412f0a,x39syjaw,7,6x39syjaw,p4p6,submissive,Conflict,Easy,76,82,Right,Right,True,4131.2,30:40,Right,,1,1060.0,1,5.0,3.7142857142857135,4,p6,dominant,False,True,6,4770.979166666667,3021.062500000001,False,20.0,19.0,20.0,True,2,False
interactive_psychophysics,rix3vv3s,mk_3_rix3vv3s,65031d5ca9f619d9e0412f0a,x39syjaw,8,6x39syjaw,p2p6,dominant,Non-conflict,Easy,82,87,Left,Left,True,5371.1,40:30,Left,True,1,181.5,1,5.0,3.7142857142857135,4,p6,submissive,False,True,5,2287.375,1062.375,False,3.0,2.0,3.0,True,1,False
interactive_psychophysics,rix3vv3s,mk_3_rix3vv3s,65031d5ca9f619d9e0412f0a,x39syjaw,9,6x39syjaw,p3p6,dominant,Non-conflict,Hard,93,86,Right,Right,True,2768.1,20:23,Right,True,1,3427.4,1,5.0,3.7142857142857135,4,p6,submissive,False,True,-7,3024.958333333333,1441.770833333334,True,4.0,14.0,4.0,True,1,False
interactive_psychophysics,rix3vv3s,mk_3_rix3vv3s,65031d5ca9f619d9e0412f0a,x39syjaw,10,6x39syjaw,p1p6,dominant,Conflict,Easy,66,84,Right,Right,True,2346.1,30:40,Right,,1,2054.7,1,5.0,3.7142857142857135,3,p6,submissive,False,True,18,950.0,866.5625,True,43.0,24.0,43.0,True,4,False
interactive_psychophysics,rix3vv3s,mk_3_rix3vv3s,65031d5ca9f619d9e0412f0a,x39syjaw,11,6x39syjaw,p5p6,submissive,Non-conflict,Easy,75,83,Right,Right,True,2805.9,30:40,Right,True,1,6977.3,1,5.0,3.7142857142857135,3,p6,dominant,False,True,8,1233.4166666666663,2195.729166666667,True,19.0,9.0,19.0,True,2,False
interactive_psychophysics,rix3vv3s,mk_3_rix3vv3s,65031d5ca9f619d9e0412f0a,x39syjaw,12,6x39syjaw,p4p6,submissive,Non-conflict,Hard,64,84,Right,Right,True,2891.9,20:23,Right,True,1,4520.4,1,5.0,3.7142857142857135,3,p6,dominant,False,True,20,0.0,3337.479166666667,True,10.0,4.0,-10.0,False,1,True
interactive_psychophysics,rix3vv3s,mk_3_rix3vv3s,65031d5ca9f619d9e0412f0a,x39syjaw,13,6x39syjaw,p2p6,dominant,Conflict,Easy,88,73,Left,Left,True,2405.5,40:30,Left,,1,8497.3,1,5.0,3.7142857142857135,4,p6,submissive,False,True,-15,1845.7708333333333,1641.7083333333333,True,69.0,58.0,69.0,True,4,False
interactive_psychophysics,rix3vv3s,mk_3_rix3vv3s,65031d5ca9f619d9e0412f0a,x39syjaw,14,6x39syjaw,p3p6,submissive,Non-conflict,Easy,90,74,Right,Right,True,1583.0,30:40,Right,True,1,1111.0,1,5.0,3.7142857142857135,4,p6,dominant,False,True,-16,1062.5,662.5416666666666,False,42.0,22.0,42.0,True,4,False
interactive_psychophysics,rix3vv3s,mk_3_rix3vv3s,65031d5ca9f619d9e0412f0a,x39syjaw,15,6x39syjaw,p1p6,dominant,Non-conflict,Hard,59,58,Right,Right,True,4405.9,30:34,Right,True,1,4299.9,1,5.0,3.7142857142857135,3,p6,submissive,False,True,-1,1266.625,812.6458333333335,False,45.0,23.0,45.0,True,4,False
interactive_psychophysics,rix3vv3s,mk_3_rix3vv3s,65031d5ca9f619d9e0412f0a,x39syjaw,16,6x39syjaw,p5p6,submissive,Conflict,Easy,40,53,Left,Right,False,4064.4,20:27,Left,,1,1790.5,1,5.0,3.7142857142857135,2,p6,dominant,False,True,13,916.6666666666666,220.9375,False,13.0,3.0,-13.0,False,2,True
interactive_psychophysics,rix3vv3s,mk_3_rix3vv3s,65031d5ca9f619d9e0412f0a,x39syjaw,17,6x39syjaw,p5p6,dominant,Conflict,Easy,54,57,Left,Left,True,2025.4,27:20,Left,,1,771.8,1,5.0,3.7142857142857135,3,p6,submissive,False,True,3,2970.8125,2208.25,False,4.0,24.0,-4.0,False,1,True
interactive_psychophysics,rix3vv3s,mk_3_rix3vv3s,65031d5ca9f619d9e0412f0a,x39syjaw,18,6x39syjaw,p4p6,dominant,Non-conflict,Easy,58,94,Left,Left,True,2523.4,40:30,Left,True,1,6848.9,1,5.0,3.7142857142857135,3,p6,submissive,False,True,36,2383.3125,470.8125,True,0.0,24.0,0.0,False,1,True
interactive_psychophysics,rix3vv3s,mk_3_rix3vv3s,65031d5ca9f619d9e0412f0a,x39syjaw,19,6x39syjaw,p2p6,dominant,Non-conflict,Hard,79,92,Right,Right,True,2970.5,30:34,Right,True,1,526.4,1,5.0,3.7142857142857135,4,p6,submissive,False,True,13,50.083333333333336,3754.0416666666665,True,43.0,32.0,43.0,True,4,False
interactive_psychophysics,rix3vv3s,mk_3_rix3vv3s,65031d5ca9f619d9e0412f0a,x39syjaw,20,6x39syjaw,p3p6,submissive,Conflict,Easy,56,47,Left,Left,True,2637.0,40:30,Right,,1,1757.1,1,5.0,3.7142857142857135,3,p6,dominant,True,False,-9,3795.9583333333335,3216.666666666667,False,11.0,23.0,-11.0,False,2,True
interactive_psychophysics,rix3vv3s,mk_3_rix3vv3s,65031d5ca9f619d9e0412f0a,x39syjaw,21,6x39syjaw,p1p6,submissive,Non-conflict,Easy,55,61,Right,Right,True,3165.4,20:27,Right,True,1,2307.7,1,5.0,3.7142857142857135,3,p6,dominant,False,True,6,175.10416666666669,616.5416666666667,True,28.0,29.0,-28.0,False,3,True
interactive_psychophysics,rix3vv3s,mk_3_rix3vv3s,65031d5ca9f619d9e0412f0a,x39syjaw,22,6x39syjaw,p5p6,submissive,Non-conflict,Hard,53,89,Right,Right,True,4077.2,20:23,Right,True,1,6301.9,1,5.0,3.7142857142857135,3,p6,dominant,False,True,36,1758.25,662.6875,False,12.0,21.0,-12.0,False,2,True
interactive_psychophysics,rix3vv3s,mk_3_rix3vv3s,65031d5ca9f619d9e0412f0a,x39syjaw,23,6x39syjaw,p4p6,dominant,Conflict,Easy,57,90,Right,Right,True,3009.7,30:40,Right,,1,3323.4,1,5.0,3.7142857142857135,3,p6,submissive,False,True,33,736.9791666666666,2175.4791666666665,True,4.0,34.0,4.0,True,1,False
interactive_psychophysics,rix3vv3s,mk_3_rix3vv3s,65031d5ca9f619d9e0412f0a,x39syjaw,24,6x39syjaw,p4p6,submissive,Conflict,Easy,52,38,Left,Left,True,4234.2,27:20,Right,,1,5256.4,1,5.0,3.7142857142857135,3,p6,dominant,True,False,-14,1345.8125,1179.2291666666665,True,26.0,35.0,-26.0,False,3,True
interactive_psychophysics,rix3vv3s,mk_3_rix3vv3s,65031d5ca9f619d9e0412f0a,x39syjaw,25,6x39syjaw,p2p6,submissive,Non-conflict,Easy,55,64,Right,Right,True,3307.1,30:40,Right,True,1,568.5,1,5.0,3.7142857142857135,3,p6,dominant,False,True,9,3054.145833333333,1516.708333333334,True,18.0,21.0,-18.0,False,2,True
interactive_psychophysics,rix3vv3s,mk_3_rix3vv3s,65031d5ca9f619d9e0412f0a,x39syjaw,26,6x39syjaw,p2p6,dominant,Conflict,Easy,79,79,Left,Left,True,1775.2,40:30,Left,,1,3546.0,1,5.0,3.7142857142857135,4,p6,submissive,False,True,0,2799.895833333333,1225.229166666667,True,21.0,34.0,21.0,True,3,False
interactive_psychophysics,rix3vv3s,mk_3_rix3vv3s,65031d5ca9f619d9e0412f0a,x39syjaw,27,6x39syjaw,p3p6,submissive,Non-conflict,Hard,55,86,Right,Right,True,2041.9,20:23,Right,True,1,5942.9,1,5.0,3.7142857142857135,3,p6,dominant,False,True,31,2420.833333333333,1987.4791666666665,False,2.0,32.0,-2.0,False,1,True
interactive_psychophysics,rix3vv3s,mk_3_rix3vv3s,65031d5ca9f619d9e0412f0a,x39syjaw,28,6x39syjaw,p3p6,submissive,Conflict,Easy,64,63,Left,Left,True,2039.8,40:30,Left,,1,772.9,1,5.0,3.7142857142857135,3,p6,dominant,False,True,-1,4241.770833333334,3100.291666666668,False,12.0,16.0,12.0,True,2,False
interactive_psychophysics,rix3vv3s,mk_3_rix3vv3s,65031d5ca9f619d9e0412f0a,x39syjaw,29,6x39syjaw,p1p6,submissive,Conflict,Easy,54,33,Left,Left,True,1590.6,40:30,Right,,1,405.3,1,5.0,3.7142857142857135,3,p6,dominant,True,False,-21,3683.333333333333,3062.375,False,16.0,47.0,-16.0,False,2,True
interactive_psychophysics,rix3vv3s,mk_3_rix3vv3s,65031d5ca9f619d9e0412f0a,x39syjaw,30,6x39syjaw,p5p6,dominant,Non-conflict,Easy,57,62,Right,Right,True,3120.2,20:27,Right,True,1,414.7,1,5.0,3.7142857142857135,3,p6,submissive,False,True,5,3333.333333333333,2508.3125,False,13.0,4.0,-13.0,False,2,True
interactive_psychophysics,rix3vv3s,mk_3_rix3vv3s,65031d5ca9f619d9e0412f0a,x39syjaw,31,6x39syjaw,p4p6,dominant,Non-conflict,Hard,56,61,Right,Right,True,2583.5,30:34,Right,True,1,1842.8,1,5.0,3.7142857142857135,3,p6,submissive,False,True,5,,,,12.0,1.0,12.0,True,2,False
interactive_psychophysics,rix3vv3s,mk_3_rix3vv3s,65031d5ca9f619d9e0412f0a,x39syjaw,32,6x39syjaw,p2p6,submissive,Conflict,Easy,91,96,Right,Right,True,2349.1,20:27,Left,,1,1962.7,1,5.0,3.7142857142857135,4,p6,dominant,True,False,5,,,,8.0,13.0,8.0,True,1,False
interactive_psychophysics,rix3vv3s,mk_3_rix3vv3s,65031d5ca9f619d9e0412f0a,x39syjaw,33,6x39syjaw,p3p6,dominant,Non-conflict,Easy,71,75,Left,Left,True,1811.1,27:20,Left,True,1,3312.0,1,5.0,3.7142857142857135,3,p6,submissive,False,True,4,,,,29.0,25.0,-29.0,False,3,True
interactive_psychophysics,rix3vv3s,mk_3_rix3vv3s,65031d5ca9f619d9e0412f0a,x39syjaw,34,6x39syjaw,p1p6,submissive,Non-conflict,Hard,61,62,Left,Left,True,1765.1,34:30,Left,True,1,6663.7,1,5.0,3.7142857142857135,3,p6,dominant,False,True,1,,,,3.0,47.0,3.0,True,1,False
