sid,session_code,mk_session,prolific_id,participant_code,round_nb,player,dyad,manipulation,condition,difficulty,confidence_1,confidence_2,indv_response,correct_response,indv_responded_correctly,rt_individual,indv_stim_order,group_choice,grp_responded_correctly,decision_count,group_rt,both_agree,mean_social_dominance,mean_aggresive_dominance
interactive_psychophysics,vzau32q8,mk:psyphysical_main:2,651d62463ac799b3c3b18da3,d8x1c958,1,1,p1p2,submissive,Conflict,Easy,46,74,Left,Left,True,4029.8,40:30,undecided,,0,23268.4,0,5.25,1.5714285714285714
interactive_psychophysics,vzau32q8,mk:psyphysical_main:2,651d62463ac799b3c3b18da3,d8x1c958,2,1,p1p3,dominant,Conflict,Easy,55,75,Left,Left,True,3266.7,40:30,Left,,1,9598.8,1,5.25,1.5714285714285714
interactive_psychophysics,vzau32q8,mk:psyphysical_main:2,651d62463ac799b3c3b18da3,d8x1c958,3,1,p1p4,submissive,Non-conflict,Easy,55,55,Right,Right,True,3446.0,20:27,undecided,,0,23185.3,0,5.25,1.5714285714285714
interactive_psychophysics,vzau32q8,mk:psyphysical_main:2,651d62463ac799b3c3b18da3,d8x1c958,4,1,p1p5,dominant,Non-conflict,Easy,60,80,Left,Left,True,3555.9,27:20,Left,True,1,18057.7,1,5.25,1.5714285714285714
interactive_psychophysics,vzau32q8,mk:psyphysical_main:2,651d62463ac799b3c3b18da3,d8x1c958,5,1,p1p6,submissive,Non-conflict,Hard,51,51,Left,Left,True,2465.9,23:20,undecided,,0,22560.1,0,5.25,1.5714285714285714
interactive_psychophysics,vzau32q8,mk:psyphysical_main:2,651d62463ac799b3c3b18da3,d8x1c958,6,1,p1p2,dominant,Non-conflict,Hard,40,75,Left,Left,True,2764.5,23:20,Left,True,1,7007.1,1,5.25,1.5714285714285714
interactive_psychophysics,vzau32q8,mk:psyphysical_main:2,651d62463ac799b3c3b18da3,d8x1c958,7,1,p1p3,submissive,Conflict,Easy,60,80,Right,Right,True,2532.9,30:40,Right,,1,10679.5,1,5.25,1.5714285714285714
interactive_psychophysics,vzau32q8,mk:psyphysical_main:2,651d62463ac799b3c3b18da3,d8x1c958,8,1,p1p4,dominant,Conflict,Easy,55,55,Right,Right,True,2352.5,20:27,undecided,,0,24010.2,0,5.25,1.5714285714285714
interactive_psychophysics,vzau32q8,mk:psyphysical_main:2,651d62463ac799b3c3b18da3,d8x1c958,9,1,p1p5,submissive,Non-conflict,Easy,80,95,Left,Left,True,3942.2,27:20,Left,True,1,83.2,1,5.25,1.5714285714285714
interactive_psychophysics,vzau32q8,mk:psyphysical_main:2,651d62463ac799b3c3b18da3,d8x1c958,10,1,p1p6,dominant,Non-conflict,Easy,60,60,Left,Left,True,2477.1,40:30,undecided,,0,23466.6,0,5.25,1.5714285714285714
interactive_psychophysics,vzau32q8,mk:psyphysical_main:2,651d62463ac799b3c3b18da3,d8x1c958,11,1,p1p2,submissive,Non-conflict,Hard,45,45,Right,Right,True,2649.6,20:23,undecided,,0,23693.7,0,5.25,1.5714285714285714
interactive_psychophysics,vzau32q8,mk:psyphysical_main:2,651d62463ac799b3c3b18da3,d8x1c958,12,1,p1p3,dominant,Non-conflict,Hard,25,45,Right,Right,True,7944.4,30:34,Right,True,1,4867.4,1,5.25,1.5714285714285714
interactive_psychophysics,vzau32q8,mk:psyphysical_main:2,651d62463ac799b3c3b18da3,d8x1c958,13,1,p1p4,submissive,Conflict,Easy,45,45,Right,Right,True,2260.8,20:27,undecided,,0,23087.5,0,5.25,1.5714285714285714
interactive_psychophysics,vzau32q8,mk:psyphysical_main:2,651d62463ac799b3c3b18da3,d8x1c958,14,1,p1p5,dominant,Conflict,Easy,44,70,Right,Right,True,2357.1,20:27,Right,,1,1699.8,1,5.25,1.5714285714285714
interactive_psychophysics,vzau32q8,mk:psyphysical_main:2,651d62463ac799b3c3b18da3,d8x1c958,15,1,p1p6,submissive,Non-conflict,Easy,25,25,Right,Right,True,2217.7,30:40,undecided,,0,24067.3,0,5.25,1.5714285714285714
interactive_psychophysics,vzau32q8,mk:psyphysical_main:2,651d62463ac799b3c3b18da3,d8x1c958,16,1,p1p2,dominant,Non-conflict,Easy,10,10,Left,Left,True,2542.3,27:20,undecided,,0,23111.1,0,5.25,1.5714285714285714
interactive_psychophysics,vzau32q8,mk:psyphysical_main:2,651d62463ac799b3c3b18da3,d8x1c958,17,1,p1p3,submissive,Non-conflict,Hard,5,40,Left,Left,True,2562.3,34:30,Left,True,1,6974.0,1,5.25,1.5714285714285714
interactive_psychophysics,vzau32q8,mk:psyphysical_main:2,651d62463ac799b3c3b18da3,d8x1c958,18,1,p1p2,dominant,Conflict,Easy,5,5,Right,Right,True,6895.5,30:40,undecided,,0,23732.1,0,5.25,1.5714285714285714
interactive_psychophysics,vzau32q8,mk:psyphysical_main:2,651d62463ac799b3c3b18da3,d8x1c958,19,1,p1p4,dominant,Non-conflict,Hard,10,10,Right,Right,True,2444.6,30:34,undecided,,0,23470.2,0,5.25,1.5714285714285714
interactive_psychophysics,vzau32q8,mk:psyphysical_main:2,651d62463ac799b3c3b18da3,d8x1c958,20,1,p1p5,submissive,Conflict,Easy,75,50,Left,Left,True,2566.2,40:30,Right,,1,7839.0,1,5.25,1.5714285714285714
interactive_psychophysics,vzau32q8,mk:psyphysical_main:2,651d62463ac799b3c3b18da3,d8x1c958,21,1,p1p3,submissive,Conflict,Easy,15,40,Left,Left,True,2349.0,27:20,Right,,1,13492.8,1,5.25,1.5714285714285714
interactive_psychophysics,vzau32q8,mk:psyphysical_main:2,651d62463ac799b3c3b18da3,d8x1c958,22,1,p1p6,dominant,Conflict,Easy,60,60,Left,Left,True,3151.1,27:20,undecided,,0,24250.7,0,5.25,1.5714285714285714
interactive_psychophysics,vzau32q8,mk:psyphysical_main:2,651d62463ac799b3c3b18da3,d8x1c958,23,1,p1p2,submissive,Non-conflict,Easy,5,30,Left,Right,False,2573.5,30:40,Right,True,1,13160.5,1,5.25,1.5714285714285714
interactive_psychophysics,vzau32q8,mk:psyphysical_main:2,651d62463ac799b3c3b18da3,d8x1c958,24,1,p1p3,dominant,Non-conflict,Easy,30,60,Left,Left,True,2267.8,27:20,Left,True,1,11220.8,1,5.25,1.5714285714285714
interactive_psychophysics,vzau32q8,mk:psyphysical_main:2,651d62463ac799b3c3b18da3,d8x1c958,25,1,p1p4,dominant,Conflict,Easy,10,10,Left,Left,True,3290.8,27:20,undecided,,0,25529.5,0,5.25,1.5714285714285714
interactive_psychophysics,vzau32q8,mk:psyphysical_main:2,651d62463ac799b3c3b18da3,d8x1c958,26,1,p1p4,submissive,Non-conflict,Hard,5,5,Right,Right,True,3780.6,30:34,undecided,,0,23651.7,0,5.25,1.5714285714285714
interactive_psychophysics,vzau32q8,mk:psyphysical_main:2,651d62463ac799b3c3b18da3,d8x1c958,27,1,p1p5,dominant,Non-conflict,Hard,5,15,Left,Right,False,2522.7,30:34,Right,True,1,9434.0,1,5.25,1.5714285714285714
interactive_psychophysics,vzau32q8,mk:psyphysical_main:2,651d62463ac799b3c3b18da3,d8x1c958,28,1,p1p6,submissive,Conflict,Easy,25,25,Right,Right,True,2706.8,20:27,undecided,,0,23387.3,0,5.25,1.5714285714285714
interactive_psychophysics,vzau32q8,mk:psyphysical_main:2,651d62463ac799b3c3b18da3,d8x1c958,29,1,p1p2,dominant,Conflict,Easy,46,50,Left,Left,True,2176.5,27:20,Right,,1,5921.8,1,5.25,1.5714285714285714
interactive_psychophysics,vzau32q8,mk:psyphysical_main:2,651d62463ac799b3c3b18da3,d8x1c958,30,1,p1p5,submissive,Conflict,Easy,5,25,Right,Right,True,3049.6,20:27,Left,,1,5205.8,1,5.25,1.5714285714285714
interactive_psychophysics,vzau32q8,mk:psyphysical_main:2,651d62463ac799b3c3b18da3,d8x1c958,31,1,p1p3,submissive,Non-conflict,Easy,45,75,Left,Left,True,2733.4,40:30,Left,True,1,765.0,1,5.25,1.5714285714285714
interactive_psychophysics,vzau32q8,mk:psyphysical_main:2,651d62463ac799b3c3b18da3,d8x1c958,32,1,p1p4,dominant,Non-conflict,Easy,30,30,Left,Left,True,2279.2,27:20,undecided,,0,24186.3,0,5.25,1.5714285714285714
interactive_psychophysics,vzau32q8,mk:psyphysical_main:2,651d62463ac799b3c3b18da3,d8x1c958,33,1,p1p5,submissive,Non-conflict,Hard,52,75,Right,Right,True,2118.7,30:34,Right,True,1,9639.9,1,5.25,1.5714285714285714
interactive_psychophysics,vzau32q8,mk:psyphysical_main:2,651d62463ac799b3c3b18da3,d8x1c958,34,1,p1p6,dominant,Non-conflict,Hard,6,6,Right,Left,False,2771.1,34:30,Right,False,1,22698.6,0,5.25,1.5714285714285714
interactive_psychophysics,vzau32q8,mk:psyphysical_main:2,66bf0af46a41e9a0b8832139,40f5ywlc,1,2,p1p2,dominant,Conflict,Easy,83,74,Right,Right,True,3151.6,30:40,undecided,,0,23268.4,0,6.625,1.4285714285714286
interactive_psychophysics,vzau32q8,mk:psyphysical_main:2,66bf0af46a41e9a0b8832139,40f5ywlc,2,2,p2p5,submissive,Conflict,Easy,80,80,Left,Left,True,2574.1,27:20,undecided,,0,24435.2,0,6.625,1.4285714285714286
interactive_psychophysics,vzau32q8,mk:psyphysical_main:2,66bf0af46a41e9a0b8832139,40f5ywlc,3,2,p2p6,dominant,Non-conflict,Easy,95,95,Right,Right,True,2518.5,30:40,Right,True,1,17720.7,1,6.625,1.4285714285714286
interactive_psychophysics,vzau32q8,mk:psyphysical_main:2,66bf0af46a41e9a0b8832139,40f5ywlc,4,2,p2p4,submissive,Non-conflict,Easy,83,92,Left,Left,True,1983.0,27:20,undecided,,0,23077.9,0,6.625,1.4285714285714286
interactive_psychophysics,vzau32q8,mk:psyphysical_main:2,66bf0af46a41e9a0b8832139,40f5ywlc,5,2,p2p3,dominant,Non-conflict,Hard,58,78,Right,Right,True,2503.0,30:34,Right,True,1,9416.0,1,6.625,1.4285714285714286
interactive_psychophysics,vzau32q8,mk:psyphysical_main:2,66bf0af46a41e9a0b8832139,40f5ywlc,6,2,p1p2,submissive,Non-conflict,Hard,65,75,Left,Left,True,2365.9,23:20,Left,True,1,7007.1,1,6.625,1.4285714285714286
interactive_psychophysics,vzau32q8,mk:psyphysical_main:2,66bf0af46a41e9a0b8832139,40f5ywlc,7,2,p2p5,dominant,Conflict,Easy,55,58,Left,Left,True,10336.9,27:20,undecided,,0,22545.0,0,6.625,1.4285714285714286
interactive_psychophysics,vzau32q8,mk:psyphysical_main:2,66bf0af46a41e9a0b8832139,40f5ywlc,8,2,p2p6,submissive,Conflict,Easy,57,59,Right,Right,True,2384.7,20:27,Right,,1,10898.8,1,6.625,1.4285714285714286
interactive_psychophysics,vzau32q8,mk:psyphysical_main:2,66bf0af46a41e9a0b8832139,40f5ywlc,9,2,p2p4,dominant,Non-conflict,Easy,61,66,Right,Left,False,2602.8,27:20,Right,False,2,25221.3,0,6.625,1.4285714285714286
interactive_psychophysics,vzau32q8,mk:psyphysical_main:2,66bf0af46a41e9a0b8832139,40f5ywlc,10,2,p2p3,submissive,Non-conflict,Easy,71,64,Right,Right,True,2267.3,30:40,undecided,,0,24570.8,0,6.625,1.4285714285714286
interactive_psychophysics,vzau32q8,mk:psyphysical_main:2,66bf0af46a41e9a0b8832139,40f5ywlc,11,2,p1p2,dominant,Non-conflict,Hard,61,60,Right,Right,True,1820.8,20:23,undecided,,0,23693.7,0,6.625,1.4285714285714286
interactive_psychophysics,vzau32q8,mk:psyphysical_main:2,66bf0af46a41e9a0b8832139,40f5ywlc,12,2,p2p5,submissive,Non-conflict,Hard,56,62,Left,Left,True,5144.5,34:30,Left,True,1,15733.4,1,6.625,1.4285714285714286
interactive_psychophysics,vzau32q8,mk:psyphysical_main:2,66bf0af46a41e9a0b8832139,40f5ywlc,13,2,p2p6,dominant,Conflict,Easy,81,68,Left,Left,True,1810.1,40:30,Left,,1,22936.1,0,6.625,1.4285714285714286
interactive_psychophysics,vzau32q8,mk:psyphysical_main:2,66bf0af46a41e9a0b8832139,40f5ywlc,14,2,p2p4,submissive,Conflict,Easy,68,60,Right,Left,False,2106.1,40:30,Right,,1,23678.4,0,6.625,1.4285714285714286
interactive_psychophysics,vzau32q8,mk:psyphysical_main:2,66bf0af46a41e9a0b8832139,40f5ywlc,15,2,p2p3,dominant,Non-conflict,Easy,88,73,Right,Right,True,2692.3,20:27,undecided,,0,22682.5,0,6.625,1.4285714285714286
interactive_psychophysics,vzau32q8,mk:psyphysical_main:2,66bf0af46a41e9a0b8832139,40f5ywlc,16,2,p1p2,submissive,Non-conflict,Easy,63,68,Left,Left,True,2934.3,27:20,undecided,,0,23111.1,0,6.625,1.4285714285714286
interactive_psychophysics,vzau32q8,mk:psyphysical_main:2,66bf0af46a41e9a0b8832139,40f5ywlc,17,2,p2p5,dominant,Non-conflict,Hard,62,56,Right,Right,True,2002.6,30:34,Right,True,1,23630.2,0,6.625,1.4285714285714286
interactive_psychophysics,vzau32q8,mk:psyphysical_main:2,66bf0af46a41e9a0b8832139,40f5ywlc,18,2,p1p2,submissive,Conflict,Easy,64,74,Left,Left,True,2372.0,40:30,undecided,,0,23732.1,0,6.625,1.4285714285714286
interactive_psychophysics,vzau32q8,mk:psyphysical_main:2,66bf0af46a41e9a0b8832139,40f5ywlc,19,2,p2p6,submissive,Non-conflict,Hard,75,66,Left,Left,True,2290.0,34:30,Left,True,1,10522.6,1,6.625,1.4285714285714286
interactive_psychophysics,vzau32q8,mk:psyphysical_main:2,66bf0af46a41e9a0b8832139,40f5ywlc,20,2,p2p4,dominant,Conflict,Easy,65,80,Left,Left,True,2373.7,27:20,Right,,1,22267.5,1,6.625,1.4285714285714286
interactive_psychophysics,vzau32q8,mk:psyphysical_main:2,66bf0af46a41e9a0b8832139,40f5ywlc,21,2,p2p5,dominant,Conflict,Easy,90,89,Left,Left,True,2001.0,27:20,Right,,1,16763.3,1,6.625,1.4285714285714286
interactive_psychophysics,vzau32q8,mk:psyphysical_main:2,66bf0af46a41e9a0b8832139,40f5ywlc,22,2,p2p3,submissive,Conflict,Easy,94,91,Left,Left,True,1805.3,40:30,Left,,1,11210.5,1,6.625,1.4285714285714286
interactive_psychophysics,vzau32q8,mk:psyphysical_main:2,66bf0af46a41e9a0b8832139,40f5ywlc,23,2,p1p2,dominant,Non-conflict,Easy,72,82,Right,Right,True,1888.1,30:40,Right,True,1,13160.5,1,6.625,1.4285714285714286
interactive_psychophysics,vzau32q8,mk:psyphysical_main:2,66bf0af46a41e9a0b8832139,40f5ywlc,24,2,p2p5,submissive,Non-conflict,Easy,63,59,Left,Left,True,2015.5,27:20,Left,True,1,4162.3,1,6.625,1.4285714285714286
interactive_psychophysics,vzau32q8,mk:psyphysical_main:2,66bf0af46a41e9a0b8832139,40f5ywlc,25,2,p2p6,submissive,Conflict,Easy,72,69,Left,Left,True,1916.5,27:20,Left,,1,7501.3,1,6.625,1.4285714285714286
interactive_psychophysics,vzau32q8,mk:psyphysical_main:2,66bf0af46a41e9a0b8832139,40f5ywlc,26,2,p2p6,dominant,Non-conflict,Hard,62,78,Right,Left,False,2471.9,23:20,Right,False,1,6698.3,1,6.625,1.4285714285714286
interactive_psychophysics,vzau32q8,mk:psyphysical_main:2,66bf0af46a41e9a0b8832139,40f5ywlc,27,2,p2p4,submissive,Non-conflict,Hard,65,71,Left,Left,True,1970.3,34:30,Left,True,1,19783.8,1,6.625,1.4285714285714286
interactive_psychophysics,vzau32q8,mk:psyphysical_main:2,66bf0af46a41e9a0b8832139,40f5ywlc,28,2,p2p3,dominant,Conflict,Easy,100,100,Right,Right,True,1661.3,20:27,Right,,1,2295.1,1,6.625,1.4285714285714286
interactive_psychophysics,vzau32q8,mk:psyphysical_main:2,66bf0af46a41e9a0b8832139,40f5ywlc,29,2,p1p2,submissive,Conflict,Easy,70,88,Right,Right,True,1963.0,20:27,Right,,1,5921.8,1,6.625,1.4285714285714286
interactive_psychophysics,vzau32q8,mk:psyphysical_main:2,66bf0af46a41e9a0b8832139,40f5ywlc,30,2,p2p4,dominant,Conflict,Easy,52,59,Right,Left,False,2875.4,27:20,Right,,1,11878.3,1,6.625,1.4285714285714286
interactive_psychophysics,vzau32q8,mk:psyphysical_main:2,66bf0af46a41e9a0b8832139,40f5ywlc,31,2,p2p5,dominant,Non-conflict,Easy,60,64,Left,Left,True,1844.9,27:20,Left,True,1,3332.1,1,6.625,1.4285714285714286
interactive_psychophysics,vzau32q8,mk:psyphysical_main:2,66bf0af46a41e9a0b8832139,40f5ywlc,32,2,p2p6,submissive,Non-conflict,Easy,60,56,Right,Right,True,1856.0,20:27,undecided,,0,23889.7,0,6.625,1.4285714285714286
interactive_psychophysics,vzau32q8,mk:psyphysical_main:2,66bf0af46a41e9a0b8832139,40f5ywlc,33,2,p2p4,dominant,Non-conflict,Hard,56,53,Right,Right,True,2158.2,20:23,undecided,,0,24510.7,0,6.625,1.4285714285714286
interactive_psychophysics,vzau32q8,mk:psyphysical_main:2,66bf0af46a41e9a0b8832139,40f5ywlc,34,2,p2p3,submissive,Non-conflict,Hard,58,59,Left,Left,True,1819.8,34:30,Left,True,1,5130.1,1,6.625,1.4285714285714286
interactive_psychophysics,vzau32q8,mk:psyphysical_main:2,5c7809d56b48600015a573f6,cljqb7jp,1,3,p3p4,dominant,Conflict,Easy,48,48,Left,Right,False,3264.8,30:40,undecided,,0,24023.4,0,2.25,3.857142857142857
interactive_psychophysics,vzau32q8,mk:psyphysical_main:2,5c7809d56b48600015a573f6,cljqb7jp,2,3,p1p3,submissive,Conflict,Easy,46,48,Left,Right,False,3553.6,30:40,Left,,1,9598.8,1,2.25,3.857142857142857
interactive_psychophysics,vzau32q8,mk:psyphysical_main:2,5c7809d56b48600015a573f6,cljqb7jp,3,3,p3p5,dominant,Non-conflict,Easy,46,48,Right,Right,True,5715.7,20:27,Right,True,1,19022.8,1,2.25,3.857142857142857
interactive_psychophysics,vzau32q8,mk:psyphysical_main:2,5c7809d56b48600015a573f6,cljqb7jp,4,3,p3p6,dominant,Non-conflict,Easy,87,49,Right,Right,True,1912.0,20:27,Right,True,1,8659.9,1,2.25,3.857142857142857
interactive_psychophysics,vzau32q8,mk:psyphysical_main:2,5c7809d56b48600015a573f6,cljqb7jp,5,3,p2p3,submissive,Non-conflict,Hard,48,49,Right,Right,True,2627.7,30:34,Right,True,1,9416.0,1,2.25,3.857142857142857
interactive_psychophysics,vzau32q8,mk:psyphysical_main:2,5c7809d56b48600015a573f6,cljqb7jp,6,3,p3p4,submissive,Non-conflict,Hard,48,49,Left,Left,True,2837.9,34:30,undecided,,0,23823.4,0,2.25,3.857142857142857
interactive_psychophysics,vzau32q8,mk:psyphysical_main:2,5c7809d56b48600015a573f6,cljqb7jp,7,3,p1p3,dominant,Conflict,Easy,47,50,Left,Left,True,1768.5,40:30,Right,,1,10679.5,1,2.25,3.857142857142857
interactive_psychophysics,vzau32q8,mk:psyphysical_main:2,5c7809d56b48600015a573f6,cljqb7jp,8,3,p3p5,submissive,Conflict,Easy,51,0,Left,Left,True,3162.2,40:30,Right,,1,10460.9,1,2.25,3.857142857142857
interactive_psychophysics,vzau32q8,mk:psyphysical_main:2,5c7809d56b48600015a573f6,cljqb7jp,9,3,p3p6,submissive,Non-conflict,Easy,100,1,Right,Right,True,2092.3,20:27,undecided,,0,24915.2,0,2.25,3.857142857142857
interactive_psychophysics,vzau32q8,mk:psyphysical_main:2,5c7809d56b48600015a573f6,cljqb7jp,10,3,p2p3,dominant,Non-conflict,Easy,100,100,Right,Right,True,15113.4,30:40,undecided,,0,24570.8,0,2.25,3.857142857142857
interactive_psychophysics,vzau32q8,mk:psyphysical_main:2,5c7809d56b48600015a573f6,cljqb7jp,11,3,p3p4,dominant,Non-conflict,Hard,21,50,Left,Left,True,1682.2,34:30,undecided,,0,23254.3,0,2.25,3.857142857142857
interactive_psychophysics,vzau32q8,mk:psyphysical_main:2,5c7809d56b48600015a573f6,cljqb7jp,12,3,p1p3,submissive,Non-conflict,Hard,47,48,Right,Right,True,1925.9,30:34,Right,True,1,4867.4,1,2.25,3.857142857142857
interactive_psychophysics,vzau32q8,mk:psyphysical_main:2,5c7809d56b48600015a573f6,cljqb7jp,13,3,p3p5,dominant,Conflict,Easy,54,50,Right,Right,True,2002.3,20:27,Left,,1,8563.9,1,2.25,3.857142857142857
interactive_psychophysics,vzau32q8,mk:psyphysical_main:2,5c7809d56b48600015a573f6,cljqb7jp,14,3,p3p6,dominant,Conflict,Easy,64,92,Right,Right,True,2537.4,30:40,Right,,1,10825.4,1,2.25,3.857142857142857
interactive_psychophysics,vzau32q8,mk:psyphysical_main:2,5c7809d56b48600015a573f6,cljqb7jp,15,3,p2p3,submissive,Non-conflict,Easy,54,67,Right,Right,True,3442.5,20:27,undecided,,0,22682.5,0,2.25,3.857142857142857
interactive_psychophysics,vzau32q8,mk:psyphysical_main:2,5c7809d56b48600015a573f6,cljqb7jp,16,3,p3p4,submissive,Non-conflict,Easy,68,58,Right,Right,True,1545.9,20:27,Right,True,1,13847.7,1,2.25,3.857142857142857
interactive_psychophysics,vzau32q8,mk:psyphysical_main:2,5c7809d56b48600015a573f6,cljqb7jp,17,3,p1p3,dominant,Non-conflict,Hard,45,64,Left,Left,True,1742.4,34:30,Left,True,1,6974.0,1,2.25,3.857142857142857
interactive_psychophysics,vzau32q8,mk:psyphysical_main:2,5c7809d56b48600015a573f6,cljqb7jp,18,3,p3p4,submissive,Conflict,Easy,56,62,Left,Left,True,1573.6,27:20,Left,,1,4987.8,1,2.25,3.857142857142857
interactive_psychophysics,vzau32q8,mk:psyphysical_main:2,5c7809d56b48600015a573f6,cljqb7jp,19,3,p3p5,submissive,Non-conflict,Hard,49,52,Left,Left,True,2926.5,34:30,Left,True,1,9930.4,1,2.25,3.857142857142857
interactive_psychophysics,vzau32q8,mk:psyphysical_main:2,5c7809d56b48600015a573f6,cljqb7jp,20,3,p3p6,submissive,Conflict,Easy,46,53,Left,Left,True,1709.2,27:20,Right,,1,390.0,1,2.25,3.857142857142857
interactive_psychophysics,vzau32q8,mk:psyphysical_main:2,5c7809d56b48600015a573f6,cljqb7jp,21,3,p1p3,dominant,Conflict,Easy,57,61,Right,Right,True,1438.2,20:27,Right,,1,13492.8,1,2.25,3.857142857142857
interactive_psychophysics,vzau32q8,mk:psyphysical_main:2,5c7809d56b48600015a573f6,cljqb7jp,22,3,p2p3,dominant,Conflict,Easy,68,69,Right,Right,True,2320.0,30:40,Left,,1,11210.5,1,2.25,3.857142857142857
interactive_psychophysics,vzau32q8,mk:psyphysical_main:2,5c7809d56b48600015a573f6,cljqb7jp,23,3,p3p4,dominant,Non-conflict,Easy,58,56,Left,Left,True,1448.1,40:30,Left,True,1,2697.0,1,2.25,3.857142857142857
interactive_psychophysics,vzau32q8,mk:psyphysical_main:2,5c7809d56b48600015a573f6,cljqb7jp,24,3,p1p3,submissive,Non-conflict,Easy,44,59,Left,Left,True,2989.2,27:20,Left,True,1,11220.8,1,2.25,3.857142857142857
interactive_psychophysics,vzau32q8,mk:psyphysical_main:2,5c7809d56b48600015a573f6,cljqb7jp,25,3,p3p5,submissive,Conflict,Easy,3,75,Left,Left,True,2761.7,27:20,Right,,1,9927.1,1,2.25,3.857142857142857
interactive_psychophysics,vzau32q8,mk:psyphysical_main:2,5c7809d56b48600015a573f6,cljqb7jp,26,3,p3p5,dominant,Non-conflict,Hard,30,55,Right,Right,True,1598.6,20:23,Right,True,1,10484.9,1,2.25,3.857142857142857
interactive_psychophysics,vzau32q8,mk:psyphysical_main:2,5c7809d56b48600015a573f6,cljqb7jp,27,3,p3p6,dominant,Non-conflict,Hard,65,75,Right,Right,True,1575.6,30:34,Right,True,1,6643.8,1,2.25,3.857142857142857
interactive_psychophysics,vzau32q8,mk:psyphysical_main:2,5c7809d56b48600015a573f6,cljqb7jp,28,3,p2p3,submissive,Conflict,Easy,42,61,Left,Left,True,2171.8,27:20,Right,,1,2295.1,1,2.25,3.857142857142857
interactive_psychophysics,vzau32q8,mk:psyphysical_main:2,5c7809d56b48600015a573f6,cljqb7jp,29,3,p3p4,submissive,Conflict,Easy,56,59,Left,Left,True,2459.0,40:30,Left,,1,508.2,1,2.25,3.857142857142857
interactive_psychophysics,vzau32q8,mk:psyphysical_main:2,5c7809d56b48600015a573f6,cljqb7jp,30,3,p3p6,dominant,Conflict,Easy,39,64,Left,Left,True,2608.6,40:30,Right,,1,6359.7,1,2.25,3.857142857142857
interactive_psychophysics,vzau32q8,mk:psyphysical_main:2,5c7809d56b48600015a573f6,cljqb7jp,31,3,p1p3,dominant,Non-conflict,Easy,47,57,Left,Left,True,1614.3,40:30,Left,True,1,765.0,1,2.25,3.857142857142857
interactive_psychophysics,vzau32q8,mk:psyphysical_main:2,5c7809d56b48600015a573f6,cljqb7jp,32,3,p3p5,submissive,Non-conflict,Easy,56,53,Right,Right,True,1729.2,20:27,Right,True,1,15942.5,1,2.25,3.857142857142857
interactive_psychophysics,vzau32q8,mk:psyphysical_main:2,5c7809d56b48600015a573f6,cljqb7jp,33,3,p3p6,submissive,Non-conflict,Hard,28,52,Left,Left,True,2906.8,34:30,Left,True,1,6722.4,1,2.25,3.857142857142857
interactive_psychophysics,vzau32q8,mk:psyphysical_main:2,5c7809d56b48600015a573f6,cljqb7jp,34,3,p2p3,dominant,Non-conflict,Hard,50,55,Right,Left,False,11155.9,34:30,Left,True,1,5130.1,1,2.25,3.857142857142857
interactive_psychophysics,vzau32q8,mk:psyphysical_main:2,5f7f37094de3e60962dd36f5,cvw9kqnw,1,4,p3p4,submissive,Conflict,Easy,75,75,Left,Left,True,12709.9,40:30,undecided,,0,24023.4,0,4.875,1.1428571428571428
interactive_psychophysics,vzau32q8,mk:psyphysical_main:2,5f7f37094de3e60962dd36f5,cvw9kqnw,2,4,p4p6,dominant,Conflict,Easy,75,80,Right,Right,True,3917.6,30:40,undecided,,0,22446.3,0,4.875,1.1428571428571428
interactive_psychophysics,vzau32q8,mk:psyphysical_main:2,5f7f37094de3e60962dd36f5,cvw9kqnw,3,4,p1p4,dominant,Non-conflict,Easy,85,100,Right,Right,True,11610.6,20:27,undecided,,0,23185.3,0,4.875,1.1428571428571428
interactive_psychophysics,vzau32q8,mk:psyphysical_main:2,5f7f37094de3e60962dd36f5,cvw9kqnw,4,4,p2p4,dominant,Non-conflict,Easy,100,100,Left,Left,True,4182.5,27:20,undecided,,0,23077.9,0,4.875,1.1428571428571428
interactive_psychophysics,vzau32q8,mk:psyphysical_main:2,5f7f37094de3e60962dd36f5,cvw9kqnw,5,4,p4p5,submissive,Non-conflict,Hard,69,100,Left,Right,False,6014.3,30:34,Right,True,1,14641.4,1,4.875,1.1428571428571428
interactive_psychophysics,vzau32q8,mk:psyphysical_main:2,5f7f37094de3e60962dd36f5,cvw9kqnw,6,4,p3p4,dominant,Non-conflict,Hard,90,70,Left,Left,True,2412.0,34:30,undecided,,0,23823.4,0,4.875,1.1428571428571428
interactive_psychophysics,vzau32q8,mk:psyphysical_main:2,5f7f37094de3e60962dd36f5,cvw9kqnw,7,4,p4p6,submissive,Conflict,Easy,100,92,Right,Right,True,3032.1,20:27,Left,,1,8186.0,1,4.875,1.1428571428571428
interactive_psychophysics,vzau32q8,mk:psyphysical_main:2,5f7f37094de3e60962dd36f5,cvw9kqnw,8,4,p1p4,submissive,Conflict,Easy,100,100,Left,Left,True,2859.0,27:20,undecided,,0,24010.2,0,4.875,1.1428571428571428
interactive_psychophysics,vzau32q8,mk:psyphysical_main:2,5f7f37094de3e60962dd36f5,cvw9kqnw,9,4,p2p4,submissive,Non-conflict,Easy,100,100,Left,Left,True,3022.6,27:20,Left,True,1,25221.3,0,4.875,1.1428571428571428
interactive_psychophysics,vzau32q8,mk:psyphysical_main:2,5f7f37094de3e60962dd36f5,cvw9kqnw,10,4,p4p5,dominant,Non-conflict,Easy,100,100,Right,Right,True,3069.6,20:27,Right,True,1,1145.9,1,4.875,1.1428571428571428
interactive_psychophysics,vzau32q8,mk:psyphysical_main:2,5f7f37094de3e60962dd36f5,cvw9kqnw,11,4,p3p4,submissive,Non-conflict,Hard,64,82,Left,Left,True,2648.6,34:30,undecided,,0,23254.3,0,4.875,1.1428571428571428
interactive_psychophysics,vzau32q8,mk:psyphysical_main:2,5f7f37094de3e60962dd36f5,cvw9kqnw,12,4,p4p6,dominant,Non-conflict,Hard,51,100,Left,Left,True,2548.7,23:20,Left,True,1,15264.2,1,4.875,1.1428571428571428
interactive_psychophysics,vzau32q8,mk:psyphysical_main:2,5f7f37094de3e60962dd36f5,cvw9kqnw,13,4,p1p4,dominant,Conflict,Easy,100,71,Left,Left,True,2976.3,27:20,undecided,,0,23087.5,0,4.875,1.1428571428571428
interactive_psychophysics,vzau32q8,mk:psyphysical_main:2,5f7f37094de3e60962dd36f5,cvw9kqnw,14,4,p2p4,dominant,Conflict,Easy,99,85,Right,Right,True,3228.5,30:40,Left,,1,23678.4,0,4.875,1.1428571428571428
interactive_psychophysics,vzau32q8,mk:psyphysical_main:2,5f7f37094de3e60962dd36f5,cvw9kqnw,15,4,p4p5,submissive,Non-conflict,Easy,76,82,Left,Left,True,3463.8,40:30,Left,True,1,7167.7,1,4.875,1.1428571428571428
interactive_psychophysics,vzau32q8,mk:psyphysical_main:2,5f7f37094de3e60962dd36f5,cvw9kqnw,16,4,p3p4,dominant,Non-conflict,Easy,100,94,Right,Right,True,4661.2,20:27,Right,True,2,13847.7,1,4.875,1.1428571428571428
interactive_psychophysics,vzau32q8,mk:psyphysical_main:2,5f7f37094de3e60962dd36f5,cvw9kqnw,17,4,p4p6,submissive,Non-conflict,Hard,80,80,Left,Left,True,2471.3,23:20,undecided,,0,23413.7,0,4.875,1.1428571428571428
interactive_psychophysics,vzau32q8,mk:psyphysical_main:2,5f7f37094de3e60962dd36f5,cvw9kqnw,18,4,p3p4,dominant,Conflict,Easy,39,100,Left,Right,False,4294.9,20:27,Left,,1,4987.8,1,4.875,1.1428571428571428
interactive_psychophysics,vzau32q8,mk:psyphysical_main:2,5f7f37094de3e60962dd36f5,cvw9kqnw,19,4,p1p4,submissive,Non-conflict,Hard,100,78,Right,Right,True,3898.1,30:34,undecided,,0,23470.2,0,4.875,1.1428571428571428
interactive_psychophysics,vzau32q8,mk:psyphysical_main:2,5f7f37094de3e60962dd36f5,cvw9kqnw,20,4,p2p4,submissive,Conflict,Easy,75,82,Right,Right,True,2329.4,20:27,Right,,1,22267.5,1,4.875,1.1428571428571428
interactive_psychophysics,vzau32q8,mk:psyphysical_main:2,5f7f37094de3e60962dd36f5,cvw9kqnw,21,4,p4p6,dominant,Conflict,Easy,100,100,Right,Right,True,2505.2,30:40,Right,,1,20187.6,1,4.875,1.1428571428571428
interactive_psychophysics,vzau32q8,mk:psyphysical_main:2,5f7f37094de3e60962dd36f5,cvw9kqnw,22,4,p4p5,dominant,Conflict,Easy,75,84,Left,Left,True,2454.4,27:20,Right,,1,6385.5,1,4.875,1.1428571428571428
interactive_psychophysics,vzau32q8,mk:psyphysical_main:2,5f7f37094de3e60962dd36f5,cvw9kqnw,23,4,p3p4,submissive,Non-conflict,Easy,80,99,Left,Left,True,2819.9,40:30,Left,True,1,2697.0,1,4.875,1.1428571428571428
interactive_psychophysics,vzau32q8,mk:psyphysical_main:2,5f7f37094de3e60962dd36f5,cvw9kqnw,24,4,p4p6,dominant,Non-conflict,Easy,100,100,Right,Right,True,2654.9,20:27,Right,True,1,10864.3,1,4.875,1.1428571428571428
interactive_psychophysics,vzau32q8,mk:psyphysical_main:2,5f7f37094de3e60962dd36f5,cvw9kqnw,25,4,p1p4,submissive,Conflict,Easy,100,100,Right,Right,True,2422.9,20:27,undecided,,0,25529.5,0,4.875,1.1428571428571428
interactive_psychophysics,vzau32q8,mk:psyphysical_main:2,5f7f37094de3e60962dd36f5,cvw9kqnw,26,4,p1p4,dominant,Non-conflict,Hard,100,100,Right,Right,True,3777.4,30:34,undecided,,0,23651.7,0,4.875,1.1428571428571428
interactive_psychophysics,vzau32q8,mk:psyphysical_main:2,5f7f37094de3e60962dd36f5,cvw9kqnw,27,4,p2p4,dominant,Non-conflict,Hard,84,100,Left,Left,True,2535.2,34:30,Left,True,1,19783.8,1,4.875,1.1428571428571428
interactive_psychophysics,vzau32q8,mk:psyphysical_main:2,5f7f37094de3e60962dd36f5,cvw9kqnw,28,4,p4p5,submissive,Conflict,Easy,70,100,Right,Right,True,2237.6,30:40,Left,,1,10426.7,1,4.875,1.1428571428571428
interactive_psychophysics,vzau32q8,mk:psyphysical_main:2,5f7f37094de3e60962dd36f5,cvw9kqnw,29,4,p3p4,dominant,Conflict,Easy,94,100,Right,Right,True,3539.7,30:40,Left,,1,508.2,1,4.875,1.1428571428571428
interactive_psychophysics,vzau32q8,mk:psyphysical_main:2,5f7f37094de3e60962dd36f5,cvw9kqnw,30,4,p2p4,submissive,Conflict,Easy,73,100,Right,Right,True,2747.5,20:27,Right,,1,11878.3,1,4.875,1.1428571428571428
interactive_psychophysics,vzau32q8,mk:psyphysical_main:2,5f7f37094de3e60962dd36f5,cvw9kqnw,31,4,p4p6,submissive,Non-conflict,Easy,72,80,Right,Right,True,2485.8,20:27,Right,True,1,14579.3,1,4.875,1.1428571428571428
interactive_psychophysics,vzau32q8,mk:psyphysical_main:2,5f7f37094de3e60962dd36f5,cvw9kqnw,32,4,p1p4,submissive,Non-conflict,Easy,73,74,Left,Left,True,2675.0,27:20,undecided,,0,24186.3,0,4.875,1.1428571428571428
interactive_psychophysics,vzau32q8,mk:psyphysical_main:2,5f7f37094de3e60962dd36f5,cvw9kqnw,33,4,p2p4,submissive,Non-conflict,Hard,62,29,Right,Right,True,2776.0,20:23,Right,True,1,24510.7,0,4.875,1.1428571428571428
interactive_psychophysics,vzau32q8,mk:psyphysical_main:2,5f7f37094de3e60962dd36f5,cvw9kqnw,34,4,p4p5,dominant,Non-conflict,Hard,79,74,Right,Right,True,2932.7,30:34,Right,True,1,6332.4,1,4.875,1.1428571428571428
interactive_psychophysics,vzau32q8,mk:psyphysical_main:2,66c1f6efdd204b273e0007cb,n5093fkc,1,5,p5p6,dominant,Conflict,Easy,80,80,Right,Right,True,2721.6,30:40,Right,,1,24212.1,0,5.625,4.0
interactive_psychophysics,vzau32q8,mk:psyphysical_main:2,66c1f6efdd204b273e0007cb,n5093fkc,2,5,p2p5,dominant,Conflict,Easy,70,15,Right,Right,True,13502.1,20:27,undecided,,0,24435.2,0,5.625,4.0
interactive_psychophysics,vzau32q8,mk:psyphysical_main:2,66c1f6efdd204b273e0007cb,n5093fkc,3,5,p3p5,submissive,Non-conflict,Easy,90,100,Right,Right,True,2124.5,20:27,Right,True,1,19022.8,1,5.625,4.0
interactive_psychophysics,vzau32q8,mk:psyphysical_main:2,66c1f6efdd204b273e0007cb,n5093fkc,4,5,p1p5,submissive,Non-conflict,Easy,90,100,Left,Left,True,1584.2,27:20,Left,True,1,18057.7,1,5.625,4.0
interactive_psychophysics,vzau32q8,mk:psyphysical_main:2,66c1f6efdd204b273e0007cb,n5093fkc,5,5,p4p5,dominant,Non-conflict,Hard,65,75,Right,Right,True,1738.9,30:34,Right,True,1,14641.4,1,5.625,4.0
interactive_psychophysics,vzau32q8,mk:psyphysical_main:2,66c1f6efdd204b273e0007cb,n5093fkc,6,5,p5p6,submissive,Non-conflict,Hard,60,60,Right,Right,True,2030.4,20:23,Right,True,1,10216.2,1,5.625,4.0
interactive_psychophysics,vzau32q8,mk:psyphysical_main:2,66c1f6efdd204b273e0007cb,n5093fkc,7,5,p2p5,submissive,Conflict,Easy,55,55,Right,Right,True,2191.6,20:27,Right,,1,22545.0,0,5.625,4.0
interactive_psychophysics,vzau32q8,mk:psyphysical_main:2,66c1f6efdd204b273e0007cb,n5093fkc,8,5,p3p5,dominant,Conflict,Easy,80,65,Right,Right,True,2368.6,30:40,Right,,1,10460.9,1,5.625,4.0
interactive_psychophysics,vzau32q8,mk:psyphysical_main:2,66c1f6efdd204b273e0007cb,n5093fkc,9,5,p1p5,dominant,Non-conflict,Easy,80,100,Left,Left,True,1797.4,27:20,Left,True,1,83.2,1,5.625,4.0
interactive_psychophysics,vzau32q8,mk:psyphysical_main:2,66c1f6efdd204b273e0007cb,n5093fkc,10,5,p4p5,submissive,Non-conflict,Easy,90,90,Right,Right,True,3688.9,20:27,Right,True,1,1145.9,1,5.625,4.0
interactive_psychophysics,vzau32q8,mk:psyphysical_main:2,66c1f6efdd204b273e0007cb,n5093fkc,11,5,p5p6,dominant,Non-conflict,Hard,60,50,Left,Left,True,1529.6,34:30,Left,True,1,8083.2,1,5.625,4.0
interactive_psychophysics,vzau32q8,mk:psyphysical_main:2,66c1f6efdd204b273e0007cb,n5093fkc,12,5,p2p5,dominant,Non-conflict,Hard,55,55,Right,Left,False,1757.2,34:30,Left,True,2,15733.4,1,5.625,4.0
interactive_psychophysics,vzau32q8,mk:psyphysical_main:2,66c1f6efdd204b273e0007cb,n5093fkc,13,5,p3p5,submissive,Conflict,Easy,85,75,Left,Left,True,2120.6,27:20,Left,,1,8563.9,1,5.625,4.0
interactive_psychophysics,vzau32q8,mk:psyphysical_main:2,66c1f6efdd204b273e0007cb,n5093fkc,14,5,p1p5,submissive,Conflict,Easy,70,80,Right,Left,False,4288.4,27:20,Right,,1,1699.8,1,5.625,4.0
interactive_psychophysics,vzau32q8,mk:psyphysical_main:2,66c1f6efdd204b273e0007cb,n5093fkc,15,5,p4p5,dominant,Non-conflict,Easy,80,90,Left,Left,True,1706.5,40:30,Left,True,1,7167.7,1,5.625,4.0
interactive_psychophysics,vzau32q8,mk:psyphysical_main:2,66c1f6efdd204b273e0007cb,n5093fkc,16,5,p5p6,submissive,Non-conflict,Easy,55,60,Right,Right,True,1285.2,20:27,Right,True,1,5130.3,1,5.625,4.0
interactive_psychophysics,vzau32q8,mk:psyphysical_main:2,66c1f6efdd204b273e0007cb,n5093fkc,17,5,p2p5,submissive,Non-conflict,Hard,55,55,Left,Right,False,1772.3,30:34,Left,False,1,23630.2,0,5.625,4.0
interactive_psychophysics,vzau32q8,mk:psyphysical_main:2,66c1f6efdd204b273e0007cb,n5093fkc,18,5,p5p6,submissive,Conflict,Easy,85,85,Right,Right,True,2431.2,30:40,Right,,1,23449.3,0,5.625,4.0
interactive_psychophysics,vzau32q8,mk:psyphysical_main:2,66c1f6efdd204b273e0007cb,n5093fkc,19,5,p3p5,dominant,Non-conflict,Hard,60,80,Left,Left,True,2426.0,34:30,Left,True,1,9930.4,1,5.625,4.0
interactive_psychophysics,vzau32q8,mk:psyphysical_main:2,66c1f6efdd204b273e0007cb,n5093fkc,20,5,p1p5,dominant,Conflict,Easy,100,95,Right,Right,True,2074.3,30:40,Right,,1,7839.0,1,5.625,4.0
interactive_psychophysics,vzau32q8,mk:psyphysical_main:2,66c1f6efdd204b273e0007cb,n5093fkc,21,5,p2p5,submissive,Conflict,Easy,100,80,Right,Right,True,1431.4,20:27,Right,,1,16763.3,1,5.625,4.0
interactive_psychophysics,vzau32q8,mk:psyphysical_main:2,66c1f6efdd204b273e0007cb,n5093fkc,22,5,p4p5,submissive,Conflict,Easy,81,80,Right,Right,True,2456.8,20:27,Right,,1,6385.5,1,5.625,4.0
interactive_psychophysics,vzau32q8,mk:psyphysical_main:2,66c1f6efdd204b273e0007cb,n5093fkc,23,5,p5p6,dominant,Non-conflict,Easy,60,70,Left,Left,True,1832.5,27:20,Left,True,1,7821.7,1,5.625,4.0
interactive_psychophysics,vzau32q8,mk:psyphysical_main:2,66c1f6efdd204b273e0007cb,n5093fkc,24,5,p2p5,dominant,Non-conflict,Easy,81,100,Left,Left,True,1513.5,27:20,Left,True,1,4162.3,1,5.625,4.0
interactive_psychophysics,vzau32q8,mk:psyphysical_main:2,66c1f6efdd204b273e0007cb,n5093fkc,25,5,p3p5,dominant,Conflict,Easy,80,100,Right,Right,True,1326.7,20:27,Right,,1,9927.1,1,5.625,4.0
interactive_psychophysics,vzau32q8,mk:psyphysical_main:2,66c1f6efdd204b273e0007cb,n5093fkc,26,5,p3p5,submissive,Non-conflict,Hard,90,100,Right,Right,True,2718.7,20:23,Right,True,1,10484.9,1,5.625,4.0
interactive_psychophysics,vzau32q8,mk:psyphysical_main:2,66c1f6efdd204b273e0007cb,n5093fkc,27,5,p1p5,submissive,Non-conflict,Hard,70,65,Right,Right,True,1942.6,30:34,Right,True,1,9434.0,1,5.625,4.0
interactive_psychophysics,vzau32q8,mk:psyphysical_main:2,66c1f6efdd204b273e0007cb,n5093fkc,28,5,p4p5,dominant,Conflict,Easy,80,85,Left,Left,True,1497.6,40:30,Left,,1,10426.7,1,5.625,4.0
interactive_psychophysics,vzau32q8,mk:psyphysical_main:2,66c1f6efdd204b273e0007cb,n5093fkc,29,5,p5p6,submissive,Conflict,Easy,100,100,Right,Right,True,1719.6,20:27,Right,,1,1338.5,1,5.625,4.0
interactive_psychophysics,vzau32q8,mk:psyphysical_main:2,66c1f6efdd204b273e0007cb,n5093fkc,30,5,p1p5,dominant,Conflict,Easy,80,75,Left,Left,True,1470.6,27:20,Left,,1,5205.8,1,5.625,4.0
interactive_psychophysics,vzau32q8,mk:psyphysical_main:2,66c1f6efdd204b273e0007cb,n5093fkc,31,5,p2p5,submissive,Non-conflict,Easy,55,80,Left,Left,True,2458.5,27:20,Left,True,1,3332.1,1,5.625,4.0
interactive_psychophysics,vzau32q8,mk:psyphysical_main:2,66c1f6efdd204b273e0007cb,n5093fkc,32,5,p3p5,dominant,Non-conflict,Easy,50,70,Right,Right,True,1284.7,20:27,Right,True,1,15942.5,1,5.625,4.0
interactive_psychophysics,vzau32q8,mk:psyphysical_main:2,66c1f6efdd204b273e0007cb,n5093fkc,33,5,p1p5,dominant,Non-conflict,Hard,60,90,Right,Right,True,2441.8,30:34,Right,True,1,9639.9,1,5.625,4.0
interactive_psychophysics,vzau32q8,mk:psyphysical_main:2,66c1f6efdd204b273e0007cb,n5093fkc,34,5,p4p5,submissive,Non-conflict,Hard,55,35,Left,Right,False,1798.6,30:34,Right,True,1,6332.4,1,5.625,4.0
interactive_psychophysics,vzau32q8,mk:psyphysical_main:2,65ae7514ff6f8c18fef0a1e2,8x5br4vb,1,6,p5p6,submissive,Conflict,Easy,74,66,Left,Left,True,4669.8,40:30,Left,,1,24212.1,0,3.25,2.2857142857142856
interactive_psychophysics,vzau32q8,mk:psyphysical_main:2,65ae7514ff6f8c18fef0a1e2,8x5br4vb,2,6,p4p6,submissive,Conflict,Easy,79,61,Left,Left,True,4220.6,40:30,Left,,1,22446.3,0,3.25,2.2857142857142856
interactive_psychophysics,vzau32q8,mk:psyphysical_main:2,65ae7514ff6f8c18fef0a1e2,8x5br4vb,3,6,p2p6,submissive,Non-conflict,Easy,38,57,Right,Right,True,1751.3,30:40,Right,True,1,17720.7,1,3.25,2.2857142857142856
interactive_psychophysics,vzau32q8,mk:psyphysical_main:2,65ae7514ff6f8c18fef0a1e2,8x5br4vb,4,6,p3p6,submissive,Non-conflict,Easy,82,68,Right,Right,True,1871.3,20:27,Right,True,1,8659.9,1,3.25,2.2857142857142856
interactive_psychophysics,vzau32q8,mk:psyphysical_main:2,65ae7514ff6f8c18fef0a1e2,8x5br4vb,5,6,p1p6,dominant,Non-conflict,Hard,28,32,Left,Left,True,2129.7,23:20,undecided,,0,22560.1,0,3.25,2.2857142857142856
interactive_psychophysics,vzau32q8,mk:psyphysical_main:2,65ae7514ff6f8c18fef0a1e2,8x5br4vb,6,6,p5p6,dominant,Non-conflict,Hard,52,55,Right,Right,True,4096.0,20:23,Right,True,1,10216.2,1,3.25,2.2857142857142856
interactive_psychophysics,vzau32q8,mk:psyphysical_main:2,65ae7514ff6f8c18fef0a1e2,8x5br4vb,7,6,p4p6,dominant,Conflict,Easy,69,66,Left,Left,True,2770.1,27:20,Left,,1,8186.0,1,3.25,2.2857142857142856
interactive_psychophysics,vzau32q8,mk:psyphysical_main:2,65ae7514ff6f8c18fef0a1e2,8x5br4vb,8,6,p2p6,dominant,Conflict,Easy,72,65,Left,Left,True,2010.6,27:20,Right,,1,10898.8,1,3.25,2.2857142857142856
interactive_psychophysics,vzau32q8,mk:psyphysical_main:2,65ae7514ff6f8c18fef0a1e2,8x5br4vb,9,6,p3p6,dominant,Non-conflict,Easy,67,70,Right,Right,True,2974.9,20:27,undecided,,0,24915.2,0,3.25,2.2857142857142856
interactive_psychophysics,vzau32q8,mk:psyphysical_main:2,65ae7514ff6f8c18fef0a1e2,8x5br4vb,10,6,p1p6,submissive,Non-conflict,Easy,28,71,Left,Left,True,2576.0,40:30,undecided,,0,23466.6,0,3.25,2.2857142857142856
interactive_psychophysics,vzau32q8,mk:psyphysical_main:2,65ae7514ff6f8c18fef0a1e2,8x5br4vb,11,6,p5p6,submissive,Non-conflict,Hard,21,37,Left,Left,True,2488.4,34:30,Left,True,1,8083.2,1,3.25,2.2857142857142856
interactive_psychophysics,vzau32q8,mk:psyphysical_main:2,65ae7514ff6f8c18fef0a1e2,8x5br4vb,12,6,p4p6,submissive,Non-conflict,Hard,64,44,Left,Left,True,1998.0,23:20,Left,True,1,15264.2,1,3.25,2.2857142857142856
interactive_psychophysics,vzau32q8,mk:psyphysical_main:2,65ae7514ff6f8c18fef0a1e2,8x5br4vb,13,6,p2p6,submissive,Conflict,Easy,62,44,Right,Right,True,1780.2,30:40,Right,,1,22936.1,0,3.25,2.2857142857142856
interactive_psychophysics,vzau32q8,mk:psyphysical_main:2,65ae7514ff6f8c18fef0a1e2,8x5br4vb,14,6,p3p6,submissive,Conflict,Easy,58,35,Left,Left,True,4145.1,40:30,Right,,2,10825.4,1,3.25,2.2857142857142856
interactive_psychophysics,vzau32q8,mk:psyphysical_main:2,65ae7514ff6f8c18fef0a1e2,8x5br4vb,15,6,p1p6,dominant,Non-conflict,Easy,60,57,Right,Right,True,2454.7,30:40,undecided,,0,24067.3,0,3.25,2.2857142857142856
interactive_psychophysics,vzau32q8,mk:psyphysical_main:2,65ae7514ff6f8c18fef0a1e2,8x5br4vb,16,6,p5p6,dominant,Non-conflict,Easy,78,80,Right,Right,True,2686.8,20:27,Right,True,1,5130.3,1,3.25,2.2857142857142856
interactive_psychophysics,vzau32q8,mk:psyphysical_main:2,65ae7514ff6f8c18fef0a1e2,8x5br4vb,17,6,p4p6,dominant,Non-conflict,Hard,76,67,Left,Left,True,4599.6,23:20,undecided,,0,23413.7,0,3.25,2.2857142857142856
interactive_psychophysics,vzau32q8,mk:psyphysical_main:2,65ae7514ff6f8c18fef0a1e2,8x5br4vb,18,6,p5p6,dominant,Conflict,Easy,82,43,Left,Left,True,2216.3,40:30,Left,,1,23449.3,0,3.25,2.2857142857142856
interactive_psychophysics,vzau32q8,mk:psyphysical_main:2,65ae7514ff6f8c18fef0a1e2,8x5br4vb,19,6,p2p6,dominant,Non-conflict,Hard,44,55,Left,Left,True,2593.4,34:30,Left,True,1,10522.6,1,3.25,2.2857142857142856
interactive_psychophysics,vzau32q8,mk:psyphysical_main:2,65ae7514ff6f8c18fef0a1e2,8x5br4vb,20,6,p3p6,dominant,Conflict,Easy,71,80,Right,Right,True,1553.7,20:27,Right,,1,390.0,1,3.25,2.2857142857142856
interactive_psychophysics,vzau32q8,mk:psyphysical_main:2,65ae7514ff6f8c18fef0a1e2,8x5br4vb,21,6,p4p6,submissive,Conflict,Easy,26,40,Left,Left,True,2868.0,40:30,Right,,2,20187.6,1,3.25,2.2857142857142856
interactive_psychophysics,vzau32q8,mk:psyphysical_main:2,65ae7514ff6f8c18fef0a1e2,8x5br4vb,22,6,p1p6,submissive,Conflict,Easy,53,44,Right,Right,True,1607.0,20:27,undecided,,0,24250.7,0,3.25,2.2857142857142856
interactive_psychophysics,vzau32q8,mk:psyphysical_main:2,65ae7514ff6f8c18fef0a1e2,8x5br4vb,23,6,p5p6,submissive,Non-conflict,Easy,60,71,Left,Left,True,1868.2,27:20,Left,True,1,7821.7,1,3.25,2.2857142857142856
interactive_psychophysics,vzau32q8,mk:psyphysical_main:2,65ae7514ff6f8c18fef0a1e2,8x5br4vb,24,6,p4p6,submissive,Non-conflict,Easy,68,70,Right,Right,True,2123.2,20:27,Right,True,1,10864.3,1,3.25,2.2857142857142856
interactive_psychophysics,vzau32q8,mk:psyphysical_main:2,65ae7514ff6f8c18fef0a1e2,8x5br4vb,25,6,p2p6,dominant,Conflict,Easy,18,29,Right,Right,True,2823.6,20:27,Left,,1,7501.3,1,3.25,2.2857142857142856
interactive_psychophysics,vzau32q8,mk:psyphysical_main:2,65ae7514ff6f8c18fef0a1e2,8x5br4vb,26,6,p2p6,submissive,Non-conflict,Hard,60,36,Left,Left,True,4218.7,23:20,Right,False,1,6698.3,1,3.25,2.2857142857142856
interactive_psychophysics,vzau32q8,mk:psyphysical_main:2,65ae7514ff6f8c18fef0a1e2,8x5br4vb,27,6,p3p6,submissive,Non-conflict,Hard,33,54,Right,Right,True,2223.6,30:34,Right,True,1,6643.8,1,3.25,2.2857142857142856
interactive_psychophysics,vzau32q8,mk:psyphysical_main:2,65ae7514ff6f8c18fef0a1e2,8x5br4vb,28,6,p1p6,dominant,Conflict,Easy,65,61,Left,Left,True,1724.1,27:20,undecided,,0,23387.3,0,3.25,2.2857142857142856
interactive_psychophysics,vzau32q8,mk:psyphysical_main:2,65ae7514ff6f8c18fef0a1e2,8x5br4vb,29,6,p5p6,dominant,Conflict,Easy,64,43,Left,Left,True,1315.1,27:20,Right,,1,1338.5,1,3.25,2.2857142857142856
interactive_psychophysics,vzau32q8,mk:psyphysical_main:2,65ae7514ff6f8c18fef0a1e2,8x5br4vb,30,6,p3p6,submissive,Conflict,Easy,35,61,Right,Right,True,1709.3,30:40,Right,,1,6359.7,1,3.25,2.2857142857142856
interactive_psychophysics,vzau32q8,mk:psyphysical_main:2,65ae7514ff6f8c18fef0a1e2,8x5br4vb,31,6,p4p6,dominant,Non-conflict,Easy,65,56,Right,Right,True,3075.1,20:27,Right,True,1,14579.3,1,3.25,2.2857142857142856
interactive_psychophysics,vzau32q8,mk:psyphysical_main:2,65ae7514ff6f8c18fef0a1e2,8x5br4vb,32,6,p2p6,dominant,Non-conflict,Easy,62,58,Right,Right,True,2403.3,20:27,undecided,,0,23889.7,0,3.25,2.2857142857142856
interactive_psychophysics,vzau32q8,mk:psyphysical_main:2,65ae7514ff6f8c18fef0a1e2,8x5br4vb,33,6,p3p6,dominant,Non-conflict,Hard,53,67,Left,Left,True,2105.9,34:30,Left,True,1,6722.4,1,3.25,2.2857142857142856
interactive_psychophysics,vzau32q8,mk:psyphysical_main:2,65ae7514ff6f8c18fef0a1e2,8x5br4vb,34,6,p1p6,submissive,Non-conflict,Hard,21,10,Left,Left,True,1527.8,34:30,Left,True,2,22698.6,0,3.25,2.2857142857142856
