sid,session_code,mk_session,prolific_id,participant_code,round_nb,role,player,dyad,manipulation,trial_payoff,responded,sent_amount,offer_response,rt,mean_social_dominance,mean_aggresive_dominance
ultimatum_game,i5pyilec,mk:Ultimatum_Game_Real:1,5f0f7fe1d7ad1c000b42d091,1sz03i1t,1,proposer,1,p1p2,1,4.0,1,6.0,1.0,7726.1,5.125,1.4285714285714286
ultimatum_game,i5pyilec,mk:Ultimatum_Game_Real:1,5f0f7fe1d7ad1c000b42d091,1sz03i1t,2,proposer,1,p1p3,0,5.0,1,5.0,1.0,2238.4,5.125,1.4285714285714286
ultimatum_game,i5pyilec,mk:Ultimatum_Game_Real:1,5f0f7fe1d7ad1c000b42d091,1sz03i1t,3,proposer,1,p1p4,1,5.0,1,5.0,1.0,4633.1,5.125,1.4285714285714286
ultimatum_game,i5pyilec,mk:Ultimatum_Game_Real:1,5f0f7fe1d7ad1c000b42d091,1sz03i1t,4,proposer,1,p1p5,0,5.0,1,5.0,1.0,2558.7,5.125,1.4285714285714286
ultimatum_game,i5pyilec,mk:Ultimatum_Game_Real:1,5f0f7fe1d7ad1c000b42d091,1sz03i1t,5,proposer,1,p1p6,1,5.0,1,5.0,1.0,2410.5,5.125,1.4285714285714286
ultimatum_game,i5pyilec,mk:Ultimatum_Game_Real:1,5f0f7fe1d7ad1c000b42d091,1sz03i1t,6,responder,1,p1p2,1,4.0,1,4.0,1.0,5602.5,5.125,1.4285714285714286
ultimatum_game,i5pyilec,mk:Ultimatum_Game_Real:1,5f0f7fe1d7ad1c000b42d091,1sz03i1t,7,responder,1,p1p3,1,5.0,1,5.0,1.0,2359.0,5.125,1.4285714285714286
ultimatum_game,i5pyilec,mk:Ultimatum_Game_Real:1,5f0f7fe1d7ad1c000b42d091,1sz03i1t,8,responder,1,p1p4,0,5.0,1,5.0,1.0,2474.7,5.125,1.4285714285714286
ultimatum_game,i5pyilec,mk:Ultimatum_Game_Real:1,5f0f7fe1d7ad1c000b42d091,1sz03i1t,9,responder,1,p1p5,0,5.0,1,5.0,1.0,2668.2,5.125,1.4285714285714286
ultimatum_game,i5pyilec,mk:Ultimatum_Game_Real:1,5f0f7fe1d7ad1c000b42d091,1sz03i1t,10,responder,1,p1p6,0,5.0,1,5.0,1.0,3024.9,5.125,1.4285714285714286
ultimatum_game,i5pyilec,mk:Ultimatum_Game_Real:1,5f0f7fe1d7ad1c000b42d091,1sz03i1t,11,proposer,1,p1p2,0,5.0,1,5.0,1.0,1930.7,5.125,1.4285714285714286
ultimatum_game,i5pyilec,mk:Ultimatum_Game_Real:1,5f0f7fe1d7ad1c000b42d091,1sz03i1t,12,proposer,1,p1p3,1,5.0,1,5.0,1.0,3304.1,5.125,1.4285714285714286
ultimatum_game,i5pyilec,mk:Ultimatum_Game_Real:1,5f0f7fe1d7ad1c000b42d091,1sz03i1t,13,proposer,1,p1p4,0,5.0,1,5.0,1.0,2380.6,5.125,1.4285714285714286
ultimatum_game,i5pyilec,mk:Ultimatum_Game_Real:1,5f0f7fe1d7ad1c000b42d091,1sz03i1t,14,proposer,1,p1p5,1,5.0,1,5.0,1.0,2297.2,5.125,1.4285714285714286
ultimatum_game,i5pyilec,mk:Ultimatum_Game_Real:1,5f0f7fe1d7ad1c000b42d091,1sz03i1t,15,proposer,1,p1p6,0,5.0,1,5.0,1.0,2661.8,5.125,1.4285714285714286
ultimatum_game,i5pyilec,mk:Ultimatum_Game_Real:1,5f0f7fe1d7ad1c000b42d091,1sz03i1t,16,responder,1,p1p2,0,5.0,1,5.0,1.0,3044.8,5.125,1.4285714285714286
ultimatum_game,i5pyilec,mk:Ultimatum_Game_Real:1,5f0f7fe1d7ad1c000b42d091,1sz03i1t,17,responder,1,p1p3,0,5.0,1,5.0,1.0,2494.0,5.125,1.4285714285714286
ultimatum_game,i5pyilec,mk:Ultimatum_Game_Real:1,5f0f7fe1d7ad1c000b42d091,1sz03i1t,18,responder,1,p1p4,1,5.0,1,5.0,1.0,2872.5,5.125,1.4285714285714286
ultimatum_game,i5pyilec,mk:Ultimatum_Game_Real:1,5f0f7fe1d7ad1c000b42d091,1sz03i1t,19,responder,1,p1p5,1,5.0,1,5.0,1.0,2543.0,5.125,1.4285714285714286
ultimatum_game,i5pyilec,mk:Ultimatum_Game_Real:1,5f0f7fe1d7ad1c000b42d091,1sz03i1t,20,responder,1,p1p6,1,5.0,1,5.0,1.0,2502.3,5.125,1.4285714285714286
ultimatum_game,i5pyilec,mk:Ultimatum_Game_Real:1,607c5af095d4f618fc21a1d1,yym5cvhb,1,responder,2,p1p2,0,6.0,1,6.0,1.0,6968.0,3.625,3.4285714285714284
ultimatum_game,i5pyilec,mk:Ultimatum_Game_Real:1,607c5af095d4f618fc21a1d1,yym5cvhb,2,proposer,2,p2p5,1,6.0,1,4.0,1.0,17933.6,3.625,3.4285714285714284
ultimatum_game,i5pyilec,mk:Ultimatum_Game_Real:1,607c5af095d4f618fc21a1d1,yym5cvhb,3,proposer,2,p2p6,1,7.0,1,3.0,1.0,3076.9,3.625,3.4285714285714284
ultimatum_game,i5pyilec,mk:Ultimatum_Game_Real:1,607c5af095d4f618fc21a1d1,yym5cvhb,4,proposer,2,p2p4,0,6.0,1,4.0,1.0,14769.3,3.625,3.4285714285714284
ultimatum_game,i5pyilec,mk:Ultimatum_Game_Real:1,607c5af095d4f618fc21a1d1,yym5cvhb,5,proposer,2,p2p3,1,6.0,1,4.0,1.0,14104.9,3.625,3.4285714285714284
ultimatum_game,i5pyilec,mk:Ultimatum_Game_Real:1,607c5af095d4f618fc21a1d1,yym5cvhb,6,proposer,2,p1p2,0,6.0,1,4.0,1.0,4694.6,3.625,3.4285714285714284
ultimatum_game,i5pyilec,mk:Ultimatum_Game_Real:1,607c5af095d4f618fc21a1d1,yym5cvhb,7,responder,2,p2p5,1,0.0,1,3.0,0.0,7546.7,3.625,3.4285714285714284
ultimatum_game,i5pyilec,mk:Ultimatum_Game_Real:1,607c5af095d4f618fc21a1d1,yym5cvhb,8,responder,2,p2p6,0,5.0,1,5.0,1.0,4303.4,3.625,3.4285714285714284
ultimatum_game,i5pyilec,mk:Ultimatum_Game_Real:1,607c5af095d4f618fc21a1d1,yym5cvhb,9,responder,2,p2p4,1,4.0,1,4.0,1.0,4084.0,3.625,3.4285714285714284
ultimatum_game,i5pyilec,mk:Ultimatum_Game_Real:1,607c5af095d4f618fc21a1d1,yym5cvhb,10,responder,2,p2p3,0,4.0,1,4.0,1.0,3899.7,3.625,3.4285714285714284
ultimatum_game,i5pyilec,mk:Ultimatum_Game_Real:1,607c5af095d4f618fc21a1d1,yym5cvhb,11,responder,2,p1p2,1,5.0,1,5.0,1.0,3567.5,3.625,3.4285714285714284
ultimatum_game,i5pyilec,mk:Ultimatum_Game_Real:1,607c5af095d4f618fc21a1d1,yym5cvhb,12,proposer,2,p2p5,0,0.0,1,3.0,0.0,14833.9,3.625,3.4285714285714284
ultimatum_game,i5pyilec,mk:Ultimatum_Game_Real:1,607c5af095d4f618fc21a1d1,yym5cvhb,13,proposer,2,p2p6,0,6.0,1,4.0,1.0,2961.4,3.625,3.4285714285714284
ultimatum_game,i5pyilec,mk:Ultimatum_Game_Real:1,607c5af095d4f618fc21a1d1,yym5cvhb,14,proposer,2,p2p4,1,6.0,1,4.0,1.0,3186.6,3.625,3.4285714285714284
ultimatum_game,i5pyilec,mk:Ultimatum_Game_Real:1,607c5af095d4f618fc21a1d1,yym5cvhb,15,proposer,2,p2p3,0,6.0,1,4.0,1.0,4801.7,3.625,3.4285714285714284
ultimatum_game,i5pyilec,mk:Ultimatum_Game_Real:1,607c5af095d4f618fc21a1d1,yym5cvhb,16,proposer,2,p1p2,1,5.0,1,5.0,1.0,5428.0,3.625,3.4285714285714284
ultimatum_game,i5pyilec,mk:Ultimatum_Game_Real:1,607c5af095d4f618fc21a1d1,yym5cvhb,17,responder,2,p2p5,0,5.0,1,5.0,1.0,4042.2,3.625,3.4285714285714284
ultimatum_game,i5pyilec,mk:Ultimatum_Game_Real:1,607c5af095d4f618fc21a1d1,yym5cvhb,18,responder,2,p2p6,1,5.0,1,5.0,1.0,3564.4,3.625,3.4285714285714284
ultimatum_game,i5pyilec,mk:Ultimatum_Game_Real:1,607c5af095d4f618fc21a1d1,yym5cvhb,19,responder,2,p2p4,0,6.0,1,6.0,1.0,3678.4,3.625,3.4285714285714284
ultimatum_game,i5pyilec,mk:Ultimatum_Game_Real:1,607c5af095d4f618fc21a1d1,yym5cvhb,20,responder,2,p2p3,1,5.0,1,5.0,1.0,3771.9,3.625,3.4285714285714284
ultimatum_game,i5pyilec,mk:Ultimatum_Game_Real:1,62d6d87d91cf24a3c1c0f10c,77od11ub,1,proposer,3,p3p4,0,0.0,0,,,1184.2,4.75,3.0
ultimatum_game,i5pyilec,mk:Ultimatum_Game_Real:1,62d6d87d91cf24a3c1c0f10c,77od11ub,2,responder,3,p1p3,1,5.0,1,5.0,1.0,3642.1,4.75,3.0
ultimatum_game,i5pyilec,mk:Ultimatum_Game_Real:1,62d6d87d91cf24a3c1c0f10c,77od11ub,3,proposer,3,p3p5,1,0.0,1,5.0,,2712.8,4.75,3.0
ultimatum_game,i5pyilec,mk:Ultimatum_Game_Real:1,62d6d87d91cf24a3c1c0f10c,77od11ub,4,proposer,3,p3p6,0,5.0,1,5.0,1.0,2148.8,4.75,3.0
ultimatum_game,i5pyilec,mk:Ultimatum_Game_Real:1,62d6d87d91cf24a3c1c0f10c,77od11ub,5,responder,3,p2p3,0,4.0,1,4.0,1.0,3588.6,4.75,3.0
ultimatum_game,i5pyilec,mk:Ultimatum_Game_Real:1,62d6d87d91cf24a3c1c0f10c,77od11ub,6,responder,3,p3p4,1,4.0,1,4.0,1.0,3403.7,4.75,3.0
ultimatum_game,i5pyilec,mk:Ultimatum_Game_Real:1,62d6d87d91cf24a3c1c0f10c,77od11ub,7,proposer,3,p1p3,0,5.0,1,5.0,1.0,3179.1,4.75,3.0
ultimatum_game,i5pyilec,mk:Ultimatum_Game_Real:1,62d6d87d91cf24a3c1c0f10c,77od11ub,8,responder,3,p3p5,1,4.0,1,4.0,1.0,2446.6,4.75,3.0
ultimatum_game,i5pyilec,mk:Ultimatum_Game_Real:1,62d6d87d91cf24a3c1c0f10c,77od11ub,9,responder,3,p3p6,0,5.0,1,5.0,1.0,3077.0,4.75,3.0
ultimatum_game,i5pyilec,mk:Ultimatum_Game_Real:1,62d6d87d91cf24a3c1c0f10c,77od11ub,10,proposer,3,p2p3,1,6.0,1,4.0,1.0,2852.4,4.75,3.0
ultimatum_game,i5pyilec,mk:Ultimatum_Game_Real:1,62d6d87d91cf24a3c1c0f10c,77od11ub,11,proposer,3,p3p4,1,6.0,1,4.0,1.0,2726.1,4.75,3.0
ultimatum_game,i5pyilec,mk:Ultimatum_Game_Real:1,62d6d87d91cf24a3c1c0f10c,77od11ub,12,responder,3,p1p3,0,5.0,1,5.0,1.0,4008.6,4.75,3.0
ultimatum_game,i5pyilec,mk:Ultimatum_Game_Real:1,62d6d87d91cf24a3c1c0f10c,77od11ub,13,proposer,3,p3p5,0,5.0,1,5.0,1.0,4077.7,4.75,3.0
ultimatum_game,i5pyilec,mk:Ultimatum_Game_Real:1,62d6d87d91cf24a3c1c0f10c,77od11ub,14,proposer,3,p3p6,1,6.0,1,4.0,1.0,2150.6,4.75,3.0
ultimatum_game,i5pyilec,mk:Ultimatum_Game_Real:1,62d6d87d91cf24a3c1c0f10c,77od11ub,15,responder,3,p2p3,1,4.0,1,4.0,1.0,2806.4,4.75,3.0
ultimatum_game,i5pyilec,mk:Ultimatum_Game_Real:1,62d6d87d91cf24a3c1c0f10c,77od11ub,16,responder,3,p3p4,0,4.0,1,4.0,1.0,2379.6,4.75,3.0
ultimatum_game,i5pyilec,mk:Ultimatum_Game_Real:1,62d6d87d91cf24a3c1c0f10c,77od11ub,17,proposer,3,p1p3,1,5.0,1,5.0,1.0,2496.6,4.75,3.0
ultimatum_game,i5pyilec,mk:Ultimatum_Game_Real:1,62d6d87d91cf24a3c1c0f10c,77od11ub,18,responder,3,p3p5,0,5.0,1,5.0,1.0,3076.3,4.75,3.0
ultimatum_game,i5pyilec,mk:Ultimatum_Game_Real:1,62d6d87d91cf24a3c1c0f10c,77od11ub,19,responder,3,p3p6,1,5.0,1,5.0,1.0,2491.9,4.75,3.0
ultimatum_game,i5pyilec,mk:Ultimatum_Game_Real:1,62d6d87d91cf24a3c1c0f10c,77od11ub,20,proposer,3,p2p3,0,5.0,1,5.0,1.0,2607.1,4.75,3.0
ultimatum_game,i5pyilec,mk:Ultimatum_Game_Real:1,I am the experimenter. ,enjhdbed,1,responder,4,p3p4,1,0.0,0,,,,3.75,1.8571428571428568
ultimatum_game,i5pyilec,mk:Ultimatum_Game_Real:1,I am the experimenter. ,enjhdbed,2,proposer,4,p4p6,0,0.0,0,,,33076.7,3.75,1.8571428571428568
ultimatum_game,i5pyilec,mk:Ultimatum_Game_Real:1,I am the experimenter. ,enjhdbed,3,responder,4,p1p4,0,5.0,1,5.0,1.0,3511.8,3.75,1.8571428571428568
ultimatum_game,i5pyilec,mk:Ultimatum_Game_Real:1,I am the experimenter. ,enjhdbed,4,responder,4,p2p4,1,4.0,1,4.0,1.0,3867.4,3.75,1.8571428571428568
ultimatum_game,i5pyilec,mk:Ultimatum_Game_Real:1,I am the experimenter. ,enjhdbed,5,proposer,4,p4p5,1,0.0,1,2.0,,11133.9,3.75,1.8571428571428568
ultimatum_game,i5pyilec,mk:Ultimatum_Game_Real:1,I am the experimenter. ,enjhdbed,6,proposer,4,p3p4,0,6.0,1,4.0,1.0,4547.0,3.75,1.8571428571428568
ultimatum_game,i5pyilec,mk:Ultimatum_Game_Real:1,I am the experimenter. ,enjhdbed,7,responder,4,p4p6,1,5.0,1,5.0,1.0,6407.4,3.75,1.8571428571428568
ultimatum_game,i5pyilec,mk:Ultimatum_Game_Real:1,I am the experimenter. ,enjhdbed,8,proposer,4,p1p4,1,5.0,1,5.0,1.0,16493.1,3.75,1.8571428571428568
ultimatum_game,i5pyilec,mk:Ultimatum_Game_Real:1,I am the experimenter. ,enjhdbed,9,proposer,4,p2p4,0,6.0,1,4.0,1.0,5371.1,3.75,1.8571428571428568
ultimatum_game,i5pyilec,mk:Ultimatum_Game_Real:1,I am the experimenter. ,enjhdbed,10,responder,4,p4p5,0,0.0,1,3.0,0.0,7377.3,3.75,1.8571428571428568
ultimatum_game,i5pyilec,mk:Ultimatum_Game_Real:1,I am the experimenter. ,enjhdbed,11,responder,4,p3p4,0,4.0,1,4.0,1.0,5590.6,3.75,1.8571428571428568
ultimatum_game,i5pyilec,mk:Ultimatum_Game_Real:1,I am the experimenter. ,enjhdbed,12,proposer,4,p4p6,0,6.0,1,4.0,1.0,2727.6,3.75,1.8571428571428568
ultimatum_game,i5pyilec,mk:Ultimatum_Game_Real:1,I am the experimenter. ,enjhdbed,13,responder,4,p1p4,1,5.0,1,5.0,1.0,9023.6,3.75,1.8571428571428568
ultimatum_game,i5pyilec,mk:Ultimatum_Game_Real:1,I am the experimenter. ,enjhdbed,14,responder,4,p2p4,0,4.0,1,4.0,1.0,2934.8,3.75,1.8571428571428568
ultimatum_game,i5pyilec,mk:Ultimatum_Game_Real:1,I am the experimenter. ,enjhdbed,15,proposer,4,p4p5,1,0.0,1,4.0,0.0,7805.4,3.75,1.8571428571428568
ultimatum_game,i5pyilec,mk:Ultimatum_Game_Real:1,I am the experimenter. ,enjhdbed,16,proposer,4,p3p4,1,6.0,1,4.0,1.0,3400.1,3.75,1.8571428571428568
ultimatum_game,i5pyilec,mk:Ultimatum_Game_Real:1,I am the experimenter. ,enjhdbed,17,responder,4,p4p6,1,6.0,1,6.0,1.0,6088.6,3.75,1.8571428571428568
ultimatum_game,i5pyilec,mk:Ultimatum_Game_Real:1,I am the experimenter. ,enjhdbed,18,proposer,4,p1p4,0,5.0,1,5.0,1.0,3082.4,3.75,1.8571428571428568
ultimatum_game,i5pyilec,mk:Ultimatum_Game_Real:1,I am the experimenter. ,enjhdbed,19,proposer,4,p2p4,1,4.0,1,6.0,1.0,8845.2,3.75,1.8571428571428568
ultimatum_game,i5pyilec,mk:Ultimatum_Game_Real:1,I am the experimenter. ,enjhdbed,20,responder,4,p4p5,0,5.0,1,5.0,1.0,6252.9,3.75,1.8571428571428568
ultimatum_game,i5pyilec,mk:Ultimatum_Game_Real:1,6384f755b4cc19e1153f51bb,j89thiah,1,proposer,5,p5p6,1,5.0,1,5.0,1.0,17722.4,4.75,3.142857142857143
ultimatum_game,i5pyilec,mk:Ultimatum_Game_Real:1,6384f755b4cc19e1153f51bb,j89thiah,2,responder,5,p2p5,0,4.0,1,4.0,1.0,6812.7,4.75,3.142857142857143
ultimatum_game,i5pyilec,mk:Ultimatum_Game_Real:1,6384f755b4cc19e1153f51bb,j89thiah,3,responder,5,p3p5,0,0.0,0,5.0,,18037.2,4.75,3.142857142857143
ultimatum_game,i5pyilec,mk:Ultimatum_Game_Real:1,6384f755b4cc19e1153f51bb,j89thiah,4,responder,5,p1p5,1,5.0,1,5.0,1.0,4331.5,4.75,3.142857142857143
ultimatum_game,i5pyilec,mk:Ultimatum_Game_Real:1,6384f755b4cc19e1153f51bb,j89thiah,5,responder,5,p4p5,0,0.0,0,2.0,,33109.8,4.75,3.142857142857143
ultimatum_game,i5pyilec,mk:Ultimatum_Game_Real:1,6384f755b4cc19e1153f51bb,j89thiah,6,responder,5,p5p6,0,3.0,1,3.0,1.0,6803.8,4.75,3.142857142857143
ultimatum_game,i5pyilec,mk:Ultimatum_Game_Real:1,6384f755b4cc19e1153f51bb,j89thiah,7,proposer,5,p2p5,0,0.0,1,3.0,0.0,11829.0,4.75,3.142857142857143
ultimatum_game,i5pyilec,mk:Ultimatum_Game_Real:1,6384f755b4cc19e1153f51bb,j89thiah,8,proposer,5,p3p5,0,6.0,1,4.0,1.0,13256.0,4.75,3.142857142857143
ultimatum_game,i5pyilec,mk:Ultimatum_Game_Real:1,6384f755b4cc19e1153f51bb,j89thiah,9,proposer,5,p1p5,1,5.0,1,5.0,1.0,6546.5,4.75,3.142857142857143
ultimatum_game,i5pyilec,mk:Ultimatum_Game_Real:1,6384f755b4cc19e1153f51bb,j89thiah,10,proposer,5,p4p5,1,0.0,1,3.0,0.0,7581.5,4.75,3.142857142857143
ultimatum_game,i5pyilec,mk:Ultimatum_Game_Real:1,6384f755b4cc19e1153f51bb,j89thiah,11,proposer,5,p5p6,0,5.0,1,5.0,1.0,6514.5,4.75,3.142857142857143
ultimatum_game,i5pyilec,mk:Ultimatum_Game_Real:1,6384f755b4cc19e1153f51bb,j89thiah,12,responder,5,p2p5,1,0.0,1,3.0,0.0,13977.5,4.75,3.142857142857143
ultimatum_game,i5pyilec,mk:Ultimatum_Game_Real:1,6384f755b4cc19e1153f51bb,j89thiah,13,responder,5,p3p5,1,5.0,1,5.0,1.0,3057.2,4.75,3.142857142857143
ultimatum_game,i5pyilec,mk:Ultimatum_Game_Real:1,6384f755b4cc19e1153f51bb,j89thiah,14,responder,5,p1p5,0,5.0,1,5.0,1.0,8088.1,4.75,3.142857142857143
ultimatum_game,i5pyilec,mk:Ultimatum_Game_Real:1,6384f755b4cc19e1153f51bb,j89thiah,15,responder,5,p4p5,0,0.0,1,4.0,0.0,10233.4,4.75,3.142857142857143
ultimatum_game,i5pyilec,mk:Ultimatum_Game_Real:1,6384f755b4cc19e1153f51bb,j89thiah,16,responder,5,p5p6,1,0.0,0,5.0,,15874.7,4.75,3.142857142857143
ultimatum_game,i5pyilec,mk:Ultimatum_Game_Real:1,6384f755b4cc19e1153f51bb,j89thiah,17,proposer,5,p2p5,1,5.0,1,5.0,1.0,7537.7,4.75,3.142857142857143
ultimatum_game,i5pyilec,mk:Ultimatum_Game_Real:1,6384f755b4cc19e1153f51bb,j89thiah,18,proposer,5,p3p5,1,5.0,1,5.0,1.0,5877.3,4.75,3.142857142857143
ultimatum_game,i5pyilec,mk:Ultimatum_Game_Real:1,6384f755b4cc19e1153f51bb,j89thiah,19,proposer,5,p1p5,0,5.0,1,5.0,1.0,8403.6,4.75,3.142857142857143
ultimatum_game,i5pyilec,mk:Ultimatum_Game_Real:1,6384f755b4cc19e1153f51bb,j89thiah,20,proposer,5,p4p5,1,5.0,1,5.0,1.0,5199.5,4.75,3.142857142857143
ultimatum_game,i5pyilec,mk:Ultimatum_Game_Real:1,5ad0ba03fb109b0001a3148e,mut7p9qa,1,responder,6,p5p6,0,5.0,1,5.0,1.0,6895.4,4.625,3.142857142857143
ultimatum_game,i5pyilec,mk:Ultimatum_Game_Real:1,5ad0ba03fb109b0001a3148e,mut7p9qa,2,responder,6,p4p6,1,0.0,0,,,,4.625,3.142857142857143
ultimatum_game,i5pyilec,mk:Ultimatum_Game_Real:1,5ad0ba03fb109b0001a3148e,mut7p9qa,3,responder,6,p2p6,0,3.0,1,3.0,1.0,4879.6,4.625,3.142857142857143
ultimatum_game,i5pyilec,mk:Ultimatum_Game_Real:1,5ad0ba03fb109b0001a3148e,mut7p9qa,4,responder,6,p3p6,1,5.0,1,5.0,1.0,5035.9,4.625,3.142857142857143
ultimatum_game,i5pyilec,mk:Ultimatum_Game_Real:1,5ad0ba03fb109b0001a3148e,mut7p9qa,5,responder,6,p1p6,0,5.0,1,5.0,1.0,4438.6,4.625,3.142857142857143
ultimatum_game,i5pyilec,mk:Ultimatum_Game_Real:1,5ad0ba03fb109b0001a3148e,mut7p9qa,6,proposer,6,p5p6,1,7.0,1,3.0,1.0,8730.5,4.625,3.142857142857143
ultimatum_game,i5pyilec,mk:Ultimatum_Game_Real:1,5ad0ba03fb109b0001a3148e,mut7p9qa,7,proposer,6,p4p6,0,5.0,1,5.0,1.0,13474.9,4.625,3.142857142857143
ultimatum_game,i5pyilec,mk:Ultimatum_Game_Real:1,5ad0ba03fb109b0001a3148e,mut7p9qa,8,proposer,6,p2p6,1,5.0,1,5.0,1.0,11580.4,4.625,3.142857142857143
ultimatum_game,i5pyilec,mk:Ultimatum_Game_Real:1,5ad0ba03fb109b0001a3148e,mut7p9qa,9,proposer,6,p3p6,1,5.0,1,5.0,1.0,3706.6,4.625,3.142857142857143
ultimatum_game,i5pyilec,mk:Ultimatum_Game_Real:1,5ad0ba03fb109b0001a3148e,mut7p9qa,10,proposer,6,p1p6,1,5.0,1,5.0,1.0,3366.0,4.625,3.142857142857143
ultimatum_game,i5pyilec,mk:Ultimatum_Game_Real:1,5ad0ba03fb109b0001a3148e,mut7p9qa,11,responder,6,p5p6,1,5.0,1,5.0,1.0,6591.5,4.625,3.142857142857143
ultimatum_game,i5pyilec,mk:Ultimatum_Game_Real:1,5ad0ba03fb109b0001a3148e,mut7p9qa,12,responder,6,p4p6,1,4.0,1,4.0,1.0,5414.5,4.625,3.142857142857143
ultimatum_game,i5pyilec,mk:Ultimatum_Game_Real:1,5ad0ba03fb109b0001a3148e,mut7p9qa,13,responder,6,p2p6,1,4.0,1,4.0,1.0,7359.3,4.625,3.142857142857143
ultimatum_game,i5pyilec,mk:Ultimatum_Game_Real:1,5ad0ba03fb109b0001a3148e,mut7p9qa,14,responder,6,p3p6,0,4.0,1,4.0,1.0,9980.0,4.625,3.142857142857143
ultimatum_game,i5pyilec,mk:Ultimatum_Game_Real:1,5ad0ba03fb109b0001a3148e,mut7p9qa,15,responder,6,p1p6,1,5.0,1,5.0,1.0,5449.7,4.625,3.142857142857143
ultimatum_game,i5pyilec,mk:Ultimatum_Game_Real:1,5ad0ba03fb109b0001a3148e,mut7p9qa,16,proposer,6,p5p6,0,0.0,1,5.0,,3014.6,4.625,3.142857142857143
ultimatum_game,i5pyilec,mk:Ultimatum_Game_Real:1,5ad0ba03fb109b0001a3148e,mut7p9qa,17,proposer,6,p4p6,0,4.0,1,6.0,1.0,6000.7,4.625,3.142857142857143
ultimatum_game,i5pyilec,mk:Ultimatum_Game_Real:1,5ad0ba03fb109b0001a3148e,mut7p9qa,18,proposer,6,p2p6,0,5.0,1,5.0,1.0,3013.9,4.625,3.142857142857143
ultimatum_game,i5pyilec,mk:Ultimatum_Game_Real:1,5ad0ba03fb109b0001a3148e,mut7p9qa,19,proposer,6,p3p6,0,5.0,1,5.0,1.0,3728.6,4.625,3.142857142857143
ultimatum_game,i5pyilec,mk:Ultimatum_Game_Real:1,5ad0ba03fb109b0001a3148e,mut7p9qa,20,proposer,6,p1p6,0,5.0,1,5.0,1.0,3528.7,4.625,3.142857142857143
ultimatum_game,dzoz67y9,mk:Ultimatum_Game_Real:2,5feb9a64d42dc5c4926ffe03,56q1hf2h,1,proposer,1,p1p2,dominant,7.0,1,3.0,1.0,5942.6,5.5,3.0
ultimatum_game,dzoz67y9,mk:Ultimatum_Game_Real:2,5feb9a64d42dc5c4926ffe03,56q1hf2h,2,proposer,1,p1p3,submissive,0.0,1,2.0,0.0,5567.7,5.5,3.0
ultimatum_game,dzoz67y9,mk:Ultimatum_Game_Real:2,5feb9a64d42dc5c4926ffe03,56q1hf2h,3,proposer,1,p1p4,dominant,0.0,1,3.0,0.0,6829.0,5.5,3.0
ultimatum_game,dzoz67y9,mk:Ultimatum_Game_Real:2,5feb9a64d42dc5c4926ffe03,56q1hf2h,4,proposer,1,p1p5,submissive,0.0,1,3.0,0.0,3149.2,5.5,3.0
ultimatum_game,dzoz67y9,mk:Ultimatum_Game_Real:2,5feb9a64d42dc5c4926ffe03,56q1hf2h,5,proposer,1,p1p6,dominant,5.0,1,5.0,1.0,2393.3,5.5,3.0
ultimatum_game,dzoz67y9,mk:Ultimatum_Game_Real:2,5feb9a64d42dc5c4926ffe03,56q1hf2h,6,responder,1,p1p2,dominant,5.0,1,5.0,1.0,4086.6,5.5,3.0
ultimatum_game,dzoz67y9,mk:Ultimatum_Game_Real:2,5feb9a64d42dc5c4926ffe03,56q1hf2h,7,responder,1,p1p3,dominant,5.0,1,5.0,1.0,2880.3,5.5,3.0
ultimatum_game,dzoz67y9,mk:Ultimatum_Game_Real:2,5feb9a64d42dc5c4926ffe03,56q1hf2h,8,responder,1,p1p4,submissive,5.0,1,5.0,1.0,9127.7,5.5,3.0
ultimatum_game,dzoz67y9,mk:Ultimatum_Game_Real:2,5feb9a64d42dc5c4926ffe03,56q1hf2h,9,responder,1,p1p5,submissive,5.0,1,5.0,1.0,4639.3,5.5,3.0
ultimatum_game,dzoz67y9,mk:Ultimatum_Game_Real:2,5feb9a64d42dc5c4926ffe03,56q1hf2h,10,responder,1,p1p6,submissive,5.0,1,5.0,1.0,2646.4,5.5,3.0
ultimatum_game,dzoz67y9,mk:Ultimatum_Game_Real:2,5feb9a64d42dc5c4926ffe03,56q1hf2h,11,proposer,1,p1p2,submissive,7.0,1,3.0,1.0,3894.5,5.5,3.0
ultimatum_game,dzoz67y9,mk:Ultimatum_Game_Real:2,5feb9a64d42dc5c4926ffe03,56q1hf2h,12,proposer,1,p1p3,dominant,5.0,1,5.0,1.0,4917.1,5.5,3.0
ultimatum_game,dzoz67y9,mk:Ultimatum_Game_Real:2,5feb9a64d42dc5c4926ffe03,56q1hf2h,13,proposer,1,p1p4,submissive,0.0,1,3.0,0.0,2734.6,5.5,3.0
ultimatum_game,dzoz67y9,mk:Ultimatum_Game_Real:2,5feb9a64d42dc5c4926ffe03,56q1hf2h,14,proposer,1,p1p5,dominant,6.0,1,4.0,1.0,3335.0,5.5,3.0
ultimatum_game,dzoz67y9,mk:Ultimatum_Game_Real:2,5feb9a64d42dc5c4926ffe03,56q1hf2h,15,proposer,1,p1p6,submissive,5.0,1,5.0,1.0,2841.7,5.5,3.0
ultimatum_game,dzoz67y9,mk:Ultimatum_Game_Real:2,5feb9a64d42dc5c4926ffe03,56q1hf2h,16,responder,1,p1p2,submissive,5.0,1,5.0,1.0,3069.6,5.5,3.0
ultimatum_game,dzoz67y9,mk:Ultimatum_Game_Real:2,5feb9a64d42dc5c4926ffe03,56q1hf2h,17,responder,1,p1p3,submissive,5.0,1,5.0,1.0,3416.6,5.5,3.0
ultimatum_game,dzoz67y9,mk:Ultimatum_Game_Real:2,5feb9a64d42dc5c4926ffe03,56q1hf2h,18,responder,1,p1p4,dominant,5.0,1,5.0,1.0,2627.0,5.5,3.0
ultimatum_game,dzoz67y9,mk:Ultimatum_Game_Real:2,5feb9a64d42dc5c4926ffe03,56q1hf2h,19,responder,1,p1p5,dominant,5.0,1,5.0,1.0,2385.5,5.5,3.0
ultimatum_game,dzoz67y9,mk:Ultimatum_Game_Real:2,5feb9a64d42dc5c4926ffe03,56q1hf2h,20,responder,1,p1p6,dominant,5.0,1,5.0,1.0,2364.9,5.5,3.0
ultimatum_game,dzoz67y9,mk:Ultimatum_Game_Real:2,5fe0b5ce0a5e7fa320d39a3a,evnqr10d,1,responder,2,p1p2,submissive,3.0,1,3.0,1.0,3987.6,3.75,2.2857142857142856
ultimatum_game,dzoz67y9,mk:Ultimatum_Game_Real:2,5fe0b5ce0a5e7fa320d39a3a,evnqr10d,2,proposer,2,p2p5,dominant,0.0,1,5.0,,3425.2,3.75,2.2857142857142856
ultimatum_game,dzoz67y9,mk:Ultimatum_Game_Real:2,5fe0b5ce0a5e7fa320d39a3a,evnqr10d,3,proposer,2,p2p6,dominant,5.0,1,5.0,1.0,1954.6,3.75,2.2857142857142856
ultimatum_game,dzoz67y9,mk:Ultimatum_Game_Real:2,5fe0b5ce0a5e7fa320d39a3a,evnqr10d,4,proposer,2,p2p4,submissive,5.0,1,5.0,1.0,18564.5,3.75,2.2857142857142856
ultimatum_game,dzoz67y9,mk:Ultimatum_Game_Real:2,5fe0b5ce0a5e7fa320d39a3a,evnqr10d,5,proposer,2,p2p3,dominant,5.0,1,5.0,1.0,2220.0,3.75,2.2857142857142856
ultimatum_game,dzoz67y9,mk:Ultimatum_Game_Real:2,5fe0b5ce0a5e7fa320d39a3a,evnqr10d,6,proposer,2,p1p2,submissive,5.0,1,5.0,1.0,2153.6,3.75,2.2857142857142856
ultimatum_game,dzoz67y9,mk:Ultimatum_Game_Real:2,5fe0b5ce0a5e7fa320d39a3a,evnqr10d,7,responder,2,p2p5,dominant,4.0,1,4.0,1.0,6188.7,3.75,2.2857142857142856
ultimatum_game,dzoz67y9,mk:Ultimatum_Game_Real:2,5fe0b5ce0a5e7fa320d39a3a,evnqr10d,8,responder,2,p2p6,submissive,4.0,1,4.0,1.0,3847.6,3.75,2.2857142857142856
ultimatum_game,dzoz67y9,mk:Ultimatum_Game_Real:2,5fe0b5ce0a5e7fa320d39a3a,evnqr10d,9,responder,2,p2p4,dominant,5.0,1,5.0,1.0,3683.4,3.75,2.2857142857142856
ultimatum_game,dzoz67y9,mk:Ultimatum_Game_Real:2,5fe0b5ce0a5e7fa320d39a3a,evnqr10d,10,responder,2,p2p3,submissive,5.0,1,5.0,1.0,4869.9,3.75,2.2857142857142856
ultimatum_game,dzoz67y9,mk:Ultimatum_Game_Real:2,5fe0b5ce0a5e7fa320d39a3a,evnqr10d,11,responder,2,p1p2,dominant,3.0,1,3.0,1.0,3540.5,3.75,2.2857142857142856
ultimatum_game,dzoz67y9,mk:Ultimatum_Game_Real:2,5fe0b5ce0a5e7fa320d39a3a,evnqr10d,12,proposer,2,p2p5,submissive,5.0,1,5.0,1.0,10648.6,3.75,2.2857142857142856
ultimatum_game,dzoz67y9,mk:Ultimatum_Game_Real:2,5fe0b5ce0a5e7fa320d39a3a,evnqr10d,13,proposer,2,p2p6,submissive,5.0,1,5.0,1.0,3244.4,3.75,2.2857142857142856
ultimatum_game,dzoz67y9,mk:Ultimatum_Game_Real:2,5fe0b5ce0a5e7fa320d39a3a,evnqr10d,14,proposer,2,p2p4,dominant,5.0,1,5.0,1.0,3106.6,3.75,2.2857142857142856
ultimatum_game,dzoz67y9,mk:Ultimatum_Game_Real:2,5fe0b5ce0a5e7fa320d39a3a,evnqr10d,15,proposer,2,p2p3,submissive,5.0,1,5.0,1.0,1921.3,3.75,2.2857142857142856
ultimatum_game,dzoz67y9,mk:Ultimatum_Game_Real:2,5fe0b5ce0a5e7fa320d39a3a,evnqr10d,16,proposer,2,p1p2,dominant,5.0,1,5.0,1.0,2534.3,3.75,2.2857142857142856
ultimatum_game,dzoz67y9,mk:Ultimatum_Game_Real:2,5fe0b5ce0a5e7fa320d39a3a,evnqr10d,17,responder,2,p2p5,submissive,4.0,1,4.0,1.0,2486.2,3.75,2.2857142857142856
ultimatum_game,dzoz67y9,mk:Ultimatum_Game_Real:2,5fe0b5ce0a5e7fa320d39a3a,evnqr10d,18,responder,2,p2p6,dominant,4.0,1,4.0,1.0,3045.4,3.75,2.2857142857142856
ultimatum_game,dzoz67y9,mk:Ultimatum_Game_Real:2,5fe0b5ce0a5e7fa320d39a3a,evnqr10d,19,responder,2,p2p4,submissive,5.0,1,5.0,1.0,4502.1,3.75,2.2857142857142856
ultimatum_game,dzoz67y9,mk:Ultimatum_Game_Real:2,5fe0b5ce0a5e7fa320d39a3a,evnqr10d,20,responder,2,p2p3,dominant,5.0,1,5.0,1.0,2350.3,3.75,2.2857142857142856
ultimatum_game,dzoz67y9,mk:Ultimatum_Game_Real:2,5fdcd228539a382bc5e9fae5,zbitv4s4,1,proposer,3,p3p4,submissive,5.0,1,5.0,1.0,13647.8,5.125,2.2857142857142856
ultimatum_game,dzoz67y9,mk:Ultimatum_Game_Real:2,5fdcd228539a382bc5e9fae5,zbitv4s4,2,responder,3,p1p3,dominant,0.0,1,2.0,0.0,5519.9,5.125,2.2857142857142856
ultimatum_game,dzoz67y9,mk:Ultimatum_Game_Real:2,5fdcd228539a382bc5e9fae5,zbitv4s4,3,proposer,3,p3p5,dominant,5.0,1,5.0,1.0,3916.6,5.125,2.2857142857142856
ultimatum_game,dzoz67y9,mk:Ultimatum_Game_Real:2,5fdcd228539a382bc5e9fae5,zbitv4s4,4,proposer,3,p3p6,submissive,5.0,1,5.0,1.0,2339.0,5.125,2.2857142857142856
ultimatum_game,dzoz67y9,mk:Ultimatum_Game_Real:2,5fdcd228539a382bc5e9fae5,zbitv4s4,5,responder,3,p2p3,submissive,5.0,1,5.0,1.0,2569.3,5.125,2.2857142857142856
ultimatum_game,dzoz67y9,mk:Ultimatum_Game_Real:2,5fdcd228539a382bc5e9fae5,zbitv4s4,6,responder,3,p3p4,dominant,5.0,1,5.0,1.0,10464.7,5.125,2.2857142857142856
ultimatum_game,dzoz67y9,mk:Ultimatum_Game_Real:2,5fdcd228539a382bc5e9fae5,zbitv4s4,7,proposer,3,p1p3,submissive,5.0,1,5.0,1.0,2846.2,5.125,2.2857142857142856
ultimatum_game,dzoz67y9,mk:Ultimatum_Game_Real:2,5fdcd228539a382bc5e9fae5,zbitv4s4,8,responder,3,p3p5,dominant,5.0,1,5.0,1.0,5248.8,5.125,2.2857142857142856
ultimatum_game,dzoz67y9,mk:Ultimatum_Game_Real:2,5fdcd228539a382bc5e9fae5,zbitv4s4,9,responder,3,p3p6,submissive,5.0,1,5.0,1.0,5740.2,5.125,2.2857142857142856
ultimatum_game,dzoz67y9,mk:Ultimatum_Game_Real:2,5fdcd228539a382bc5e9fae5,zbitv4s4,10,proposer,3,p2p3,dominant,5.0,1,5.0,1.0,3532.0,5.125,2.2857142857142856
ultimatum_game,dzoz67y9,mk:Ultimatum_Game_Real:2,5fdcd228539a382bc5e9fae5,zbitv4s4,11,proposer,3,p3p4,dominant,0.0,1,4.0,0.0,3490.4,5.125,2.2857142857142856
ultimatum_game,dzoz67y9,mk:Ultimatum_Game_Real:2,5fdcd228539a382bc5e9fae5,zbitv4s4,12,responder,3,p1p3,submissive,5.0,1,5.0,1.0,4282.7,5.125,2.2857142857142856
ultimatum_game,dzoz67y9,mk:Ultimatum_Game_Real:2,5fdcd228539a382bc5e9fae5,zbitv4s4,13,proposer,3,p3p5,submissive,5.0,1,5.0,1.0,4254.0,5.125,2.2857142857142856
ultimatum_game,dzoz67y9,mk:Ultimatum_Game_Real:2,5fdcd228539a382bc5e9fae5,zbitv4s4,14,proposer,3,p3p6,dominant,5.0,1,5.0,1.0,3323.0,5.125,2.2857142857142856
ultimatum_game,dzoz67y9,mk:Ultimatum_Game_Real:2,5fdcd228539a382bc5e9fae5,zbitv4s4,15,responder,3,p2p3,dominant,5.0,1,5.0,1.0,2893.2,5.125,2.2857142857142856
ultimatum_game,dzoz67y9,mk:Ultimatum_Game_Real:2,5fdcd228539a382bc5e9fae5,zbitv4s4,16,responder,3,p3p4,submissive,5.0,1,5.0,1.0,4895.5,5.125,2.2857142857142856
ultimatum_game,dzoz67y9,mk:Ultimatum_Game_Real:2,5fdcd228539a382bc5e9fae5,zbitv4s4,17,proposer,3,p1p3,dominant,5.0,1,5.0,1.0,2646.1,5.125,2.2857142857142856
ultimatum_game,dzoz67y9,mk:Ultimatum_Game_Real:2,5fdcd228539a382bc5e9fae5,zbitv4s4,18,responder,3,p3p5,submissive,5.0,1,5.0,1.0,4721.2,5.125,2.2857142857142856
ultimatum_game,dzoz67y9,mk:Ultimatum_Game_Real:2,5fdcd228539a382bc5e9fae5,zbitv4s4,19,responder,3,p3p6,dominant,5.0,1,5.0,1.0,2597.0,5.125,2.2857142857142856
ultimatum_game,dzoz67y9,mk:Ultimatum_Game_Real:2,5fdcd228539a382bc5e9fae5,zbitv4s4,20,proposer,3,p2p3,submissive,5.0,1,5.0,1.0,1967.8,5.125,2.2857142857142856
ultimatum_game,dzoz67y9,mk:Ultimatum_Game_Real:2,6525684f0a285b2386b10497,ia1a0oyi,1,responder,4,p3p4,dominant,5.0,1,5.0,1.0,6843.7,6.75,2.4285714285714284
ultimatum_game,dzoz67y9,mk:Ultimatum_Game_Real:2,6525684f0a285b2386b10497,ia1a0oyi,2,proposer,4,p4p6,submissive,5.0,1,5.0,1.0,6468.6,6.75,2.4285714285714284
ultimatum_game,dzoz67y9,mk:Ultimatum_Game_Real:2,6525684f0a285b2386b10497,ia1a0oyi,3,responder,4,p1p4,submissive,0.0,1,3.0,0.0,4645.1,6.75,2.4285714285714284
ultimatum_game,dzoz67y9,mk:Ultimatum_Game_Real:2,6525684f0a285b2386b10497,ia1a0oyi,4,responder,4,p2p4,dominant,5.0,1,5.0,1.0,4593.2,6.75,2.4285714285714284
ultimatum_game,dzoz67y9,mk:Ultimatum_Game_Real:2,6525684f0a285b2386b10497,ia1a0oyi,5,proposer,4,p4p5,dominant,5.0,1,5.0,1.0,4841.0,6.75,2.4285714285714284
ultimatum_game,dzoz67y9,mk:Ultimatum_Game_Real:2,6525684f0a285b2386b10497,ia1a0oyi,6,proposer,4,p3p4,submissive,5.0,1,5.0,1.0,3385.3,6.75,2.4285714285714284
ultimatum_game,dzoz67y9,mk:Ultimatum_Game_Real:2,6525684f0a285b2386b10497,ia1a0oyi,7,responder,4,p4p6,dominant,0.0,1,4.0,0.0,6700.6,6.75,2.4285714285714284
ultimatum_game,dzoz67y9,mk:Ultimatum_Game_Real:2,6525684f0a285b2386b10497,ia1a0oyi,8,proposer,4,p1p4,dominant,5.0,1,5.0,1.0,3481.5,6.75,2.4285714285714284
ultimatum_game,dzoz67y9,mk:Ultimatum_Game_Real:2,6525684f0a285b2386b10497,ia1a0oyi,9,proposer,4,p2p4,submissive,5.0,1,5.0,1.0,8875.5,6.75,2.4285714285714284
ultimatum_game,dzoz67y9,mk:Ultimatum_Game_Real:2,6525684f0a285b2386b10497,ia1a0oyi,10,responder,4,p4p5,submissive,5.0,1,5.0,1.0,3875.9,6.75,2.4285714285714284
ultimatum_game,dzoz67y9,mk:Ultimatum_Game_Real:2,6525684f0a285b2386b10497,ia1a0oyi,11,responder,4,p3p4,submissive,0.0,1,4.0,0.0,7012.5,6.75,2.4285714285714284
ultimatum_game,dzoz67y9,mk:Ultimatum_Game_Real:2,6525684f0a285b2386b10497,ia1a0oyi,12,proposer,4,p4p6,submissive,5.0,1,5.0,1.0,7642.8,6.75,2.4285714285714284
ultimatum_game,dzoz67y9,mk:Ultimatum_Game_Real:2,6525684f0a285b2386b10497,ia1a0oyi,13,responder,4,p1p4,dominant,0.0,1,3.0,0.0,6107.6,6.75,2.4285714285714284
ultimatum_game,dzoz67y9,mk:Ultimatum_Game_Real:2,6525684f0a285b2386b10497,ia1a0oyi,14,responder,4,p2p4,submissive,5.0,1,5.0,1.0,3997.9,6.75,2.4285714285714284
ultimatum_game,dzoz67y9,mk:Ultimatum_Game_Real:2,6525684f0a285b2386b10497,ia1a0oyi,15,proposer,4,p4p5,dominant,5.0,1,5.0,1.0,23406.5,6.75,2.4285714285714284
ultimatum_game,dzoz67y9,mk:Ultimatum_Game_Real:2,6525684f0a285b2386b10497,ia1a0oyi,16,proposer,4,p3p4,dominant,5.0,1,5.0,1.0,6720.4,6.75,2.4285714285714284
ultimatum_game,dzoz67y9,mk:Ultimatum_Game_Real:2,6525684f0a285b2386b10497,ia1a0oyi,17,responder,4,p4p6,dominant,5.0,1,5.0,1.0,5805.1,6.75,2.4285714285714284
ultimatum_game,dzoz67y9,mk:Ultimatum_Game_Real:2,6525684f0a285b2386b10497,ia1a0oyi,18,proposer,4,p1p4,submissive,5.0,1,5.0,1.0,3348.4,6.75,2.4285714285714284
ultimatum_game,dzoz67y9,mk:Ultimatum_Game_Real:2,6525684f0a285b2386b10497,ia1a0oyi,19,proposer,4,p2p4,dominant,5.0,1,5.0,1.0,6891.5,6.75,2.4285714285714284
ultimatum_game,dzoz67y9,mk:Ultimatum_Game_Real:2,6525684f0a285b2386b10497,ia1a0oyi,20,responder,4,p4p5,submissive,0.0,1,4.0,0.0,5664.3,6.75,2.4285714285714284
ultimatum_game,dzoz67y9,mk:Ultimatum_Game_Real:2,65e845d36f06957a658f1c54,la16nzmd,1,proposer,5,p5p6,dominant,0.0,0,,,1876.9,4.875,3.857142857142857
ultimatum_game,dzoz67y9,mk:Ultimatum_Game_Real:2,65e845d36f06957a658f1c54,la16nzmd,2,responder,5,p2p5,submissive,0.0,0,5.0,,8226.8,4.875,3.857142857142857
ultimatum_game,dzoz67y9,mk:Ultimatum_Game_Real:2,65e845d36f06957a658f1c54,la16nzmd,3,responder,5,p3p5,submissive,5.0,1,5.0,1.0,2427.8,4.875,3.857142857142857
ultimatum_game,dzoz67y9,mk:Ultimatum_Game_Real:2,65e845d36f06957a658f1c54,la16nzmd,4,responder,5,p1p5,dominant,0.0,1,3.0,0.0,3224.4,4.875,3.857142857142857
ultimatum_game,dzoz67y9,mk:Ultimatum_Game_Real:2,65e845d36f06957a658f1c54,la16nzmd,5,responder,5,p4p5,submissive,5.0,1,5.0,1.0,3218.0,4.875,3.857142857142857
ultimatum_game,dzoz67y9,mk:Ultimatum_Game_Real:2,65e845d36f06957a658f1c54,la16nzmd,6,responder,5,p5p6,submissive,4.0,1,4.0,1.0,2775.8,4.875,3.857142857142857
ultimatum_game,dzoz67y9,mk:Ultimatum_Game_Real:2,65e845d36f06957a658f1c54,la16nzmd,7,proposer,5,p2p5,submissive,6.0,1,4.0,1.0,3316.4,4.875,3.857142857142857
ultimatum_game,dzoz67y9,mk:Ultimatum_Game_Real:2,65e845d36f06957a658f1c54,la16nzmd,8,proposer,5,p3p5,submissive,5.0,1,5.0,1.0,2537.4,4.875,3.857142857142857
ultimatum_game,dzoz67y9,mk:Ultimatum_Game_Real:2,65e845d36f06957a658f1c54,la16nzmd,9,proposer,5,p1p5,dominant,5.0,1,5.0,1.0,3369.7,4.875,3.857142857142857
ultimatum_game,dzoz67y9,mk:Ultimatum_Game_Real:2,65e845d36f06957a658f1c54,la16nzmd,10,proposer,5,p4p5,dominant,5.0,1,5.0,1.0,3840.3,4.875,3.857142857142857
ultimatum_game,dzoz67y9,mk:Ultimatum_Game_Real:2,65e845d36f06957a658f1c54,la16nzmd,11,proposer,5,p5p6,submissive,5.0,1,5.0,1.0,2440.2,4.875,3.857142857142857
ultimatum_game,dzoz67y9,mk:Ultimatum_Game_Real:2,65e845d36f06957a658f1c54,la16nzmd,12,responder,5,p2p5,dominant,5.0,1,5.0,1.0,4198.7,4.875,3.857142857142857
ultimatum_game,dzoz67y9,mk:Ultimatum_Game_Real:2,65e845d36f06957a658f1c54,la16nzmd,13,responder,5,p3p5,dominant,5.0,1,5.0,1.0,3923.2,4.875,3.857142857142857
ultimatum_game,dzoz67y9,mk:Ultimatum_Game_Real:2,65e845d36f06957a658f1c54,la16nzmd,14,responder,5,p1p5,submissive,4.0,1,4.0,1.0,5630.6,4.875,3.857142857142857
ultimatum_game,dzoz67y9,mk:Ultimatum_Game_Real:2,65e845d36f06957a658f1c54,la16nzmd,15,responder,5,p4p5,submissive,5.0,1,5.0,1.0,3976.0,4.875,3.857142857142857
ultimatum_game,dzoz67y9,mk:Ultimatum_Game_Real:2,65e845d36f06957a658f1c54,la16nzmd,16,responder,5,p5p6,dominant,4.0,1,4.0,1.0,3133.1,4.875,3.857142857142857
ultimatum_game,dzoz67y9,mk:Ultimatum_Game_Real:2,65e845d36f06957a658f1c54,la16nzmd,17,proposer,5,p2p5,dominant,6.0,1,4.0,1.0,4385.8,4.875,3.857142857142857
ultimatum_game,dzoz67y9,mk:Ultimatum_Game_Real:2,65e845d36f06957a658f1c54,la16nzmd,18,proposer,5,p3p5,dominant,5.0,1,5.0,1.0,3060.2,4.875,3.857142857142857
ultimatum_game,dzoz67y9,mk:Ultimatum_Game_Real:2,65e845d36f06957a658f1c54,la16nzmd,19,proposer,5,p1p5,submissive,5.0,1,5.0,1.0,2739.1,4.875,3.857142857142857
ultimatum_game,dzoz67y9,mk:Ultimatum_Game_Real:2,65e845d36f06957a658f1c54,la16nzmd,20,proposer,5,p4p5,dominant,0.0,1,4.0,0.0,2893.8,4.875,3.857142857142857
ultimatum_game,dzoz67y9,mk:Ultimatum_Game_Real:2,62fa76a8d6bb71d857185b66,15wh1qxv,1,responder,6,p5p6,submissive,0.0,0,,,,5.25,2.142857142857143
ultimatum_game,dzoz67y9,mk:Ultimatum_Game_Real:2,62fa76a8d6bb71d857185b66,15wh1qxv,2,responder,6,p4p6,dominant,5.0,1,5.0,1.0,6355.9,5.25,2.142857142857143
ultimatum_game,dzoz67y9,mk:Ultimatum_Game_Real:2,62fa76a8d6bb71d857185b66,15wh1qxv,3,responder,6,p2p6,submissive,5.0,1,5.0,1.0,4197.3,5.25,2.142857142857143
ultimatum_game,dzoz67y9,mk:Ultimatum_Game_Real:2,62fa76a8d6bb71d857185b66,15wh1qxv,4,responder,6,p3p6,dominant,5.0,1,5.0,1.0,3720.0,5.25,2.142857142857143
ultimatum_game,dzoz67y9,mk:Ultimatum_Game_Real:2,62fa76a8d6bb71d857185b66,15wh1qxv,5,responder,6,p1p6,submissive,5.0,1,5.0,1.0,3649.7,5.25,2.142857142857143
ultimatum_game,dzoz67y9,mk:Ultimatum_Game_Real:2,62fa76a8d6bb71d857185b66,15wh1qxv,6,proposer,6,p5p6,dominant,6.0,1,4.0,1.0,2954.4,5.25,2.142857142857143
ultimatum_game,dzoz67y9,mk:Ultimatum_Game_Real:2,62fa76a8d6bb71d857185b66,15wh1qxv,7,proposer,6,p4p6,submissive,0.0,1,4.0,0.0,4591.6,5.25,2.142857142857143
ultimatum_game,dzoz67y9,mk:Ultimatum_Game_Real:2,62fa76a8d6bb71d857185b66,15wh1qxv,8,proposer,6,p2p6,dominant,6.0,1,4.0,1.0,2415.3,5.25,2.142857142857143
ultimatum_game,dzoz67y9,mk:Ultimatum_Game_Real:2,62fa76a8d6bb71d857185b66,15wh1qxv,9,proposer,6,p3p6,dominant,5.0,1,5.0,1.0,3625.8,5.25,2.142857142857143
ultimatum_game,dzoz67y9,mk:Ultimatum_Game_Real:2,62fa76a8d6bb71d857185b66,15wh1qxv,10,proposer,6,p1p6,dominant,5.0,1,5.0,1.0,2588.5,5.25,2.142857142857143
ultimatum_game,dzoz67y9,mk:Ultimatum_Game_Real:2,62fa76a8d6bb71d857185b66,15wh1qxv,11,responder,6,p5p6,dominant,5.0,1,5.0,1.0,5850.2,5.25,2.142857142857143
ultimatum_game,dzoz67y9,mk:Ultimatum_Game_Real:2,62fa76a8d6bb71d857185b66,15wh1qxv,12,responder,6,p4p6,dominant,5.0,1,5.0,1.0,4101.0,5.25,2.142857142857143
ultimatum_game,dzoz67y9,mk:Ultimatum_Game_Real:2,62fa76a8d6bb71d857185b66,15wh1qxv,13,responder,6,p2p6,dominant,5.0,1,5.0,1.0,3835.1,5.25,2.142857142857143
ultimatum_game,dzoz67y9,mk:Ultimatum_Game_Real:2,62fa76a8d6bb71d857185b66,15wh1qxv,14,responder,6,p3p6,submissive,5.0,1,5.0,1.0,3200.3,5.25,2.142857142857143
ultimatum_game,dzoz67y9,mk:Ultimatum_Game_Real:2,62fa76a8d6bb71d857185b66,15wh1qxv,15,responder,6,p1p6,dominant,5.0,1,5.0,1.0,3196.9,5.25,2.142857142857143
ultimatum_game,dzoz67y9,mk:Ultimatum_Game_Real:2,62fa76a8d6bb71d857185b66,15wh1qxv,16,proposer,6,p5p6,submissive,6.0,1,4.0,1.0,3351.3,5.25,2.142857142857143
ultimatum_game,dzoz67y9,mk:Ultimatum_Game_Real:2,62fa76a8d6bb71d857185b66,15wh1qxv,17,proposer,6,p4p6,submissive,5.0,1,5.0,1.0,3461.7,5.25,2.142857142857143
ultimatum_game,dzoz67y9,mk:Ultimatum_Game_Real:2,62fa76a8d6bb71d857185b66,15wh1qxv,18,proposer,6,p2p6,submissive,6.0,1,4.0,1.0,2342.6,5.25,2.142857142857143
ultimatum_game,dzoz67y9,mk:Ultimatum_Game_Real:2,62fa76a8d6bb71d857185b66,15wh1qxv,19,proposer,6,p3p6,submissive,5.0,1,5.0,1.0,2774.8,5.25,2.142857142857143
ultimatum_game,dzoz67y9,mk:Ultimatum_Game_Real:2,62fa76a8d6bb71d857185b66,15wh1qxv,20,proposer,6,p1p6,submissive,5.0,1,5.0,1.0,2484.0,5.25,2.142857142857143
ultimatum_game,mklqs5l0,mk:Ultimatum_Game_Real:3,5f1c29f047a90a049690ef7e,r615kdio,1,proposer,1,p1p2,dominant,5.0,1,5.0,1.0,6170.8,4.0,3.2857142857142856
ultimatum_game,mklqs5l0,mk:Ultimatum_Game_Real:3,5f1c29f047a90a049690ef7e,r615kdio,2,proposer,1,p1p3,submissive,5.0,1,5.0,1.0,5398.1,4.0,3.2857142857142856
ultimatum_game,mklqs5l0,mk:Ultimatum_Game_Real:3,5f1c29f047a90a049690ef7e,r615kdio,3,proposer,1,p1p4,dominant,0.0,1,5.0,,9901.1,4.0,3.2857142857142856
ultimatum_game,mklqs5l0,mk:Ultimatum_Game_Real:3,5f1c29f047a90a049690ef7e,r615kdio,4,proposer,1,p1p5,submissive,5.0,1,5.0,1.0,3575.9,4.0,3.2857142857142856
ultimatum_game,mklqs5l0,mk:Ultimatum_Game_Real:3,5f1c29f047a90a049690ef7e,r615kdio,5,proposer,1,p1p6,dominant,5.0,1,5.0,1.0,2538.3,4.0,3.2857142857142856
ultimatum_game,mklqs5l0,mk:Ultimatum_Game_Real:3,5f1c29f047a90a049690ef7e,r615kdio,6,responder,1,p1p2,dominant,5.0,1,5.0,1.0,5954.3,4.0,3.2857142857142856
ultimatum_game,mklqs5l0,mk:Ultimatum_Game_Real:3,5f1c29f047a90a049690ef7e,r615kdio,7,responder,1,p1p3,dominant,5.0,1,5.0,1.0,5930.0,4.0,3.2857142857142856
ultimatum_game,mklqs5l0,mk:Ultimatum_Game_Real:3,5f1c29f047a90a049690ef7e,r615kdio,8,responder,1,p1p4,submissive,0.0,0,,,,4.0,3.2857142857142856
ultimatum_game,mklqs5l0,mk:Ultimatum_Game_Real:3,5f1c29f047a90a049690ef7e,r615kdio,9,responder,1,p1p5,submissive,5.0,1,5.0,1.0,4173.8,4.0,3.2857142857142856
ultimatum_game,mklqs5l0,mk:Ultimatum_Game_Real:3,5f1c29f047a90a049690ef7e,r615kdio,10,responder,1,p1p6,submissive,5.0,1,5.0,1.0,6012.8,4.0,3.2857142857142856
ultimatum_game,mklqs5l0,mk:Ultimatum_Game_Real:3,5f1c29f047a90a049690ef7e,r615kdio,11,proposer,1,p1p2,submissive,5.0,1,5.0,1.0,3781.8,4.0,3.2857142857142856
ultimatum_game,mklqs5l0,mk:Ultimatum_Game_Real:3,5f1c29f047a90a049690ef7e,r615kdio,12,proposer,1,p1p3,dominant,5.0,1,5.0,1.0,4316.6,4.0,3.2857142857142856
ultimatum_game,mklqs5l0,mk:Ultimatum_Game_Real:3,5f1c29f047a90a049690ef7e,r615kdio,13,proposer,1,p1p4,submissive,0.0,1,5.0,,4472.3,4.0,3.2857142857142856
ultimatum_game,mklqs5l0,mk:Ultimatum_Game_Real:3,5f1c29f047a90a049690ef7e,r615kdio,14,proposer,1,p1p5,dominant,5.0,1,5.0,1.0,3114.3,4.0,3.2857142857142856
ultimatum_game,mklqs5l0,mk:Ultimatum_Game_Real:3,5f1c29f047a90a049690ef7e,r615kdio,15,proposer,1,p1p6,submissive,5.0,1,5.0,1.0,6358.5,4.0,3.2857142857142856
ultimatum_game,mklqs5l0,mk:Ultimatum_Game_Real:3,5f1c29f047a90a049690ef7e,r615kdio,16,responder,1,p1p2,submissive,5.0,1,5.0,1.0,3660.7,4.0,3.2857142857142856
ultimatum_game,mklqs5l0,mk:Ultimatum_Game_Real:3,5f1c29f047a90a049690ef7e,r615kdio,17,responder,1,p1p3,submissive,5.0,1,5.0,1.0,6691.6,4.0,3.2857142857142856
ultimatum_game,mklqs5l0,mk:Ultimatum_Game_Real:3,5f1c29f047a90a049690ef7e,r615kdio,18,responder,1,p1p4,dominant,0.0,0,,,,4.0,3.2857142857142856
ultimatum_game,mklqs5l0,mk:Ultimatum_Game_Real:3,5f1c29f047a90a049690ef7e,r615kdio,19,responder,1,p1p5,dominant,10.0,1,10.0,1.0,5248.4,4.0,3.2857142857142856
ultimatum_game,mklqs5l0,mk:Ultimatum_Game_Real:3,5f1c29f047a90a049690ef7e,r615kdio,20,responder,1,p1p6,dominant,5.0,1,5.0,1.0,3333.9,4.0,3.2857142857142856
ultimatum_game,mklqs5l0,mk:Ultimatum_Game_Real:3,59f8868e05d1d60001f1464d,4kt189x1,1,responder,2,p1p2,submissive,5.0,1,5.0,1.0,5484.1,3.0,2.4285714285714284
ultimatum_game,mklqs5l0,mk:Ultimatum_Game_Real:3,59f8868e05d1d60001f1464d,4kt189x1,2,proposer,2,p2p5,dominant,5.0,1,5.0,1.0,3716.9,3.0,2.4285714285714284
ultimatum_game,mklqs5l0,mk:Ultimatum_Game_Real:3,59f8868e05d1d60001f1464d,4kt189x1,3,proposer,2,p2p6,dominant,5.0,1,5.0,1.0,3851.5,3.0,2.4285714285714284
ultimatum_game,mklqs5l0,mk:Ultimatum_Game_Real:3,59f8868e05d1d60001f1464d,4kt189x1,4,proposer,2,p2p4,submissive,0.0,1,4.0,,6903.4,3.0,2.4285714285714284
ultimatum_game,mklqs5l0,mk:Ultimatum_Game_Real:3,59f8868e05d1d60001f1464d,4kt189x1,5,proposer,2,p2p3,dominant,5.0,1,5.0,1.0,3048.9,3.0,2.4285714285714284
ultimatum_game,mklqs5l0,mk:Ultimatum_Game_Real:3,59f8868e05d1d60001f1464d,4kt189x1,6,proposer,2,p1p2,submissive,5.0,1,5.0,1.0,2468.9,3.0,2.4285714285714284
ultimatum_game,mklqs5l0,mk:Ultimatum_Game_Real:3,59f8868e05d1d60001f1464d,4kt189x1,7,responder,2,p2p5,dominant,5.0,1,5.0,1.0,4682.2,3.0,2.4285714285714284
ultimatum_game,mklqs5l0,mk:Ultimatum_Game_Real:3,59f8868e05d1d60001f1464d,4kt189x1,8,responder,2,p2p6,submissive,5.0,1,5.0,1.0,3473.3,3.0,2.4285714285714284
ultimatum_game,mklqs5l0,mk:Ultimatum_Game_Real:3,59f8868e05d1d60001f1464d,4kt189x1,9,responder,2,p2p4,dominant,0.0,0,,,,3.0,2.4285714285714284
ultimatum_game,mklqs5l0,mk:Ultimatum_Game_Real:3,59f8868e05d1d60001f1464d,4kt189x1,10,responder,2,p2p3,submissive,5.0,1,5.0,1.0,4503.8,3.0,2.4285714285714284
ultimatum_game,mklqs5l0,mk:Ultimatum_Game_Real:3,59f8868e05d1d60001f1464d,4kt189x1,11,responder,2,p1p2,dominant,5.0,1,5.0,1.0,2779.7,3.0,2.4285714285714284
ultimatum_game,mklqs5l0,mk:Ultimatum_Game_Real:3,59f8868e05d1d60001f1464d,4kt189x1,12,proposer,2,p2p5,submissive,6.0,1,4.0,1.0,2979.2,3.0,2.4285714285714284
ultimatum_game,mklqs5l0,mk:Ultimatum_Game_Real:3,59f8868e05d1d60001f1464d,4kt189x1,13,proposer,2,p2p6,submissive,5.0,1,5.0,1.0,2305.4,3.0,2.4285714285714284
ultimatum_game,mklqs5l0,mk:Ultimatum_Game_Real:3,59f8868e05d1d60001f1464d,4kt189x1,14,proposer,2,p2p4,dominant,0.0,1,3.0,,8603.7,3.0,2.4285714285714284
ultimatum_game,mklqs5l0,mk:Ultimatum_Game_Real:3,59f8868e05d1d60001f1464d,4kt189x1,15,proposer,2,p2p3,submissive,5.0,1,5.0,1.0,2609.2,3.0,2.4285714285714284
ultimatum_game,mklqs5l0,mk:Ultimatum_Game_Real:3,59f8868e05d1d60001f1464d,4kt189x1,16,proposer,2,p1p2,dominant,5.0,1,5.0,1.0,2360.7,3.0,2.4285714285714284
ultimatum_game,mklqs5l0,mk:Ultimatum_Game_Real:3,59f8868e05d1d60001f1464d,4kt189x1,17,responder,2,p2p5,submissive,5.0,1,5.0,1.0,4167.4,3.0,2.4285714285714284
ultimatum_game,mklqs5l0,mk:Ultimatum_Game_Real:3,59f8868e05d1d60001f1464d,4kt189x1,18,responder,2,p2p6,dominant,5.0,1,5.0,1.0,2406.0,3.0,2.4285714285714284
ultimatum_game,mklqs5l0,mk:Ultimatum_Game_Real:3,59f8868e05d1d60001f1464d,4kt189x1,19,responder,2,p2p4,submissive,0.0,0,,,,3.0,2.4285714285714284
ultimatum_game,mklqs5l0,mk:Ultimatum_Game_Real:3,59f8868e05d1d60001f1464d,4kt189x1,20,responder,2,p2p3,dominant,5.0,1,5.0,1.0,3222.8,3.0,2.4285714285714284
ultimatum_game,mklqs5l0,mk:Ultimatum_Game_Real:3,5dfb7cbd01423f8a774d893b,kzzq77pl,1,proposer,3,p3p4,submissive,5.0,1,5.0,1.0,6061.9,6.125,2.0
ultimatum_game,mklqs5l0,mk:Ultimatum_Game_Real:3,5dfb7cbd01423f8a774d893b,kzzq77pl,2,responder,3,p1p3,dominant,5.0,1,5.0,1.0,7929.4,6.125,2.0
ultimatum_game,mklqs5l0,mk:Ultimatum_Game_Real:3,5dfb7cbd01423f8a774d893b,kzzq77pl,3,proposer,3,p3p5,dominant,5.0,1,5.0,1.0,3163.7,6.125,2.0
ultimatum_game,mklqs5l0,mk:Ultimatum_Game_Real:3,5dfb7cbd01423f8a774d893b,kzzq77pl,4,proposer,3,p3p6,submissive,5.0,1,5.0,1.0,2848.5,6.125,2.0
ultimatum_game,mklqs5l0,mk:Ultimatum_Game_Real:3,5dfb7cbd01423f8a774d893b,kzzq77pl,5,responder,3,p2p3,submissive,5.0,1,5.0,1.0,639.2,6.125,2.0
ultimatum_game,mklqs5l0,mk:Ultimatum_Game_Real:3,5dfb7cbd01423f8a774d893b,kzzq77pl,6,responder,3,p3p4,dominant,0.0,0,,,,6.125,2.0
ultimatum_game,mklqs5l0,mk:Ultimatum_Game_Real:3,5dfb7cbd01423f8a774d893b,kzzq77pl,7,proposer,3,p1p3,submissive,5.0,1,5.0,1.0,3926.4,6.125,2.0
ultimatum_game,mklqs5l0,mk:Ultimatum_Game_Real:3,5dfb7cbd01423f8a774d893b,kzzq77pl,8,responder,3,p3p5,dominant,10.0,1,10.0,1.0,9554.1,6.125,2.0
ultimatum_game,mklqs5l0,mk:Ultimatum_Game_Real:3,5dfb7cbd01423f8a774d893b,kzzq77pl,9,responder,3,p3p6,submissive,5.0,1,5.0,1.0,5573.7,6.125,2.0
ultimatum_game,mklqs5l0,mk:Ultimatum_Game_Real:3,5dfb7cbd01423f8a774d893b,kzzq77pl,10,proposer,3,p2p3,dominant,5.0,1,5.0,1.0,4597.3,6.125,2.0
ultimatum_game,mklqs5l0,mk:Ultimatum_Game_Real:3,5dfb7cbd01423f8a774d893b,kzzq77pl,11,proposer,3,p3p4,dominant,0.0,1,5.0,,10241.6,6.125,2.0
ultimatum_game,mklqs5l0,mk:Ultimatum_Game_Real:3,5dfb7cbd01423f8a774d893b,kzzq77pl,12,responder,3,p1p3,submissive,5.0,1,5.0,1.0,6124.2,6.125,2.0
ultimatum_game,mklqs5l0,mk:Ultimatum_Game_Real:3,5dfb7cbd01423f8a774d893b,kzzq77pl,13,proposer,3,p3p5,submissive,8.0,1,2.0,1.0,12850.3,6.125,2.0
ultimatum_game,mklqs5l0,mk:Ultimatum_Game_Real:3,5dfb7cbd01423f8a774d893b,kzzq77pl,14,proposer,3,p3p6,dominant,6.0,1,4.0,1.0,3322.5,6.125,2.0
ultimatum_game,mklqs5l0,mk:Ultimatum_Game_Real:3,5dfb7cbd01423f8a774d893b,kzzq77pl,15,responder,3,p2p3,dominant,5.0,1,5.0,1.0,5666.0,6.125,2.0
ultimatum_game,mklqs5l0,mk:Ultimatum_Game_Real:3,5dfb7cbd01423f8a774d893b,kzzq77pl,16,responder,3,p3p4,submissive,0.0,0,,,,6.125,2.0
ultimatum_game,mklqs5l0,mk:Ultimatum_Game_Real:3,5dfb7cbd01423f8a774d893b,kzzq77pl,17,proposer,3,p1p3,dominant,5.0,1,5.0,1.0,3325.9,6.125,2.0
ultimatum_game,mklqs5l0,mk:Ultimatum_Game_Real:3,5dfb7cbd01423f8a774d893b,kzzq77pl,18,responder,3,p3p5,submissive,10.0,1,10.0,1.0,4557.0,6.125,2.0
ultimatum_game,mklqs5l0,mk:Ultimatum_Game_Real:3,5dfb7cbd01423f8a774d893b,kzzq77pl,19,responder,3,p3p6,dominant,5.0,1,5.0,1.0,6050.4,6.125,2.0
ultimatum_game,mklqs5l0,mk:Ultimatum_Game_Real:3,5dfb7cbd01423f8a774d893b,kzzq77pl,20,proposer,3,p2p3,submissive,5.0,1,5.0,1.0,3403.0,6.125,2.0
ultimatum_game,mklqs5l0,mk:Ultimatum_Game_Real:3,,97ajc1w1,1,responder,4,p3p4,dominant,5.0,1,5.0,1.0,6814.5,0.0,0.0
ultimatum_game,mklqs5l0,mk:Ultimatum_Game_Real:3,,97ajc1w1,2,proposer,4,p4p6,submissive,0.0,0,,,33292.4,0.0,0.0
ultimatum_game,mklqs5l0,mk:Ultimatum_Game_Real:3,,97ajc1w1,3,responder,4,p1p4,submissive,0.0,0,5.0,,33375.9,0.0,0.0
ultimatum_game,mklqs5l0,mk:Ultimatum_Game_Real:3,,97ajc1w1,4,responder,4,p2p4,dominant,0.0,0,4.0,,33427.2,0.0,0.0
ultimatum_game,mklqs5l0,mk:Ultimatum_Game_Real:3,,97ajc1w1,5,proposer,4,p4p5,dominant,0.0,0,,,33380.4,0.0,0.0
ultimatum_game,mklqs5l0,mk:Ultimatum_Game_Real:3,,97ajc1w1,6,proposer,4,p3p4,submissive,0.0,0,,,33374.1,0.0,0.0
ultimatum_game,mklqs5l0,mk:Ultimatum_Game_Real:3,,97ajc1w1,7,responder,4,p4p6,dominant,0.0,0,5.0,,33423.5,0.0,0.0
ultimatum_game,mklqs5l0,mk:Ultimatum_Game_Real:3,,97ajc1w1,8,proposer,4,p1p4,dominant,0.0,0,,,33222.9,0.0,0.0
ultimatum_game,mklqs5l0,mk:Ultimatum_Game_Real:3,,97ajc1w1,9,proposer,4,p2p4,submissive,0.0,0,,,33112.5,0.0,0.0
ultimatum_game,mklqs5l0,mk:Ultimatum_Game_Real:3,,97ajc1w1,10,responder,4,p4p5,submissive,0.0,0,0.0,,33148.4,0.0,0.0
ultimatum_game,mklqs5l0,mk:Ultimatum_Game_Real:3,,97ajc1w1,11,responder,4,p3p4,submissive,0.0,0,5.0,,33172.8,0.0,0.0
ultimatum_game,mklqs5l0,mk:Ultimatum_Game_Real:3,,97ajc1w1,12,proposer,4,p4p6,submissive,0.0,0,,,33082.2,0.0,0.0
ultimatum_game,mklqs5l0,mk:Ultimatum_Game_Real:3,,97ajc1w1,13,responder,4,p1p4,dominant,0.0,0,5.0,,21068.0,0.0,0.0
ultimatum_game,mklqs5l0,mk:Ultimatum_Game_Real:3,,97ajc1w1,14,responder,4,p2p4,submissive,0.0,0,3.0,,33126.0,0.0,0.0
ultimatum_game,mklqs5l0,mk:Ultimatum_Game_Real:3,,97ajc1w1,15,proposer,4,p4p5,dominant,0.0,0,,,33077.1,0.0,0.0
ultimatum_game,mklqs5l0,mk:Ultimatum_Game_Real:3,,97ajc1w1,16,proposer,4,p3p4,dominant,0.0,0,,,33077.3,0.0,0.0
ultimatum_game,mklqs5l0,mk:Ultimatum_Game_Real:3,,97ajc1w1,17,responder,4,p4p6,dominant,0.0,0,5.0,,33122.3,0.0,0.0
ultimatum_game,mklqs5l0,mk:Ultimatum_Game_Real:3,,97ajc1w1,18,proposer,4,p1p4,submissive,0.0,0,,,33087.2,0.0,0.0
ultimatum_game,mklqs5l0,mk:Ultimatum_Game_Real:3,,97ajc1w1,19,proposer,4,p2p4,dominant,0.0,0,,,33097.1,0.0,0.0
ultimatum_game,mklqs5l0,mk:Ultimatum_Game_Real:3,,97ajc1w1,20,responder,4,p4p5,submissive,0.0,0,,,,0.0,0.0
ultimatum_game,mklqs5l0,mk:Ultimatum_Game_Real:3,5d1a69d8f97a18001977e0d7,2kti5bsb,1,proposer,5,p5p6,dominant,5.0,1,5.0,1.0,7148.3,5.625,2.4285714285714284
ultimatum_game,mklqs5l0,mk:Ultimatum_Game_Real:3,5d1a69d8f97a18001977e0d7,2kti5bsb,2,responder,5,p2p5,submissive,5.0,1,5.0,1.0,5205.1,5.625,2.4285714285714284
ultimatum_game,mklqs5l0,mk:Ultimatum_Game_Real:3,5d1a69d8f97a18001977e0d7,2kti5bsb,3,responder,5,p3p5,submissive,5.0,1,5.0,1.0,3945.4,5.625,2.4285714285714284
ultimatum_game,mklqs5l0,mk:Ultimatum_Game_Real:3,5d1a69d8f97a18001977e0d7,2kti5bsb,4,responder,5,p1p5,dominant,5.0,1,5.0,1.0,4923.1,5.625,2.4285714285714284
ultimatum_game,mklqs5l0,mk:Ultimatum_Game_Real:3,5d1a69d8f97a18001977e0d7,2kti5bsb,5,responder,5,p4p5,submissive,0.0,0,,,,5.625,2.4285714285714284
ultimatum_game,mklqs5l0,mk:Ultimatum_Game_Real:3,5d1a69d8f97a18001977e0d7,2kti5bsb,6,responder,5,p5p6,submissive,5.0,1,5.0,1.0,4529.5,5.625,2.4285714285714284
ultimatum_game,mklqs5l0,mk:Ultimatum_Game_Real:3,5d1a69d8f97a18001977e0d7,2kti5bsb,7,proposer,5,p2p5,submissive,5.0,1,5.0,1.0,3863.7,5.625,2.4285714285714284
ultimatum_game,mklqs5l0,mk:Ultimatum_Game_Real:3,5d1a69d8f97a18001977e0d7,2kti5bsb,8,proposer,5,p3p5,submissive,0.0,1,10.0,1.0,3301.5,5.625,2.4285714285714284
ultimatum_game,mklqs5l0,mk:Ultimatum_Game_Real:3,5d1a69d8f97a18001977e0d7,2kti5bsb,9,proposer,5,p1p5,dominant,5.0,1,5.0,1.0,2799.7,5.625,2.4285714285714284
ultimatum_game,mklqs5l0,mk:Ultimatum_Game_Real:3,5d1a69d8f97a18001977e0d7,2kti5bsb,10,proposer,5,p4p5,dominant,0.0,1,0.0,,6650.1,5.625,2.4285714285714284
ultimatum_game,mklqs5l0,mk:Ultimatum_Game_Real:3,5d1a69d8f97a18001977e0d7,2kti5bsb,11,proposer,5,p5p6,submissive,0.0,1,10.0,1.0,3817.3,5.625,2.4285714285714284
ultimatum_game,mklqs5l0,mk:Ultimatum_Game_Real:3,5d1a69d8f97a18001977e0d7,2kti5bsb,12,responder,5,p2p5,dominant,4.0,1,4.0,1.0,3898.6,5.625,2.4285714285714284
ultimatum_game,mklqs5l0,mk:Ultimatum_Game_Real:3,5d1a69d8f97a18001977e0d7,2kti5bsb,13,responder,5,p3p5,dominant,2.0,1,2.0,1.0,4370.5,5.625,2.4285714285714284
ultimatum_game,mklqs5l0,mk:Ultimatum_Game_Real:3,5d1a69d8f97a18001977e0d7,2kti5bsb,14,responder,5,p1p5,submissive,5.0,1,5.0,1.0,3810.5,5.625,2.4285714285714284
ultimatum_game,mklqs5l0,mk:Ultimatum_Game_Real:3,5d1a69d8f97a18001977e0d7,2kti5bsb,15,responder,5,p4p5,submissive,0.0,0,,,,5.625,2.4285714285714284
ultimatum_game,mklqs5l0,mk:Ultimatum_Game_Real:3,5d1a69d8f97a18001977e0d7,2kti5bsb,16,responder,5,p5p6,dominant,0.0,1,0.0,1.0,4584.2,5.625,2.4285714285714284
ultimatum_game,mklqs5l0,mk:Ultimatum_Game_Real:3,5d1a69d8f97a18001977e0d7,2kti5bsb,17,proposer,5,p2p5,dominant,5.0,1,5.0,1.0,4108.8,5.625,2.4285714285714284
ultimatum_game,mklqs5l0,mk:Ultimatum_Game_Real:3,5d1a69d8f97a18001977e0d7,2kti5bsb,18,proposer,5,p3p5,dominant,0.0,1,10.0,1.0,4970.8,5.625,2.4285714285714284
ultimatum_game,mklqs5l0,mk:Ultimatum_Game_Real:3,5d1a69d8f97a18001977e0d7,2kti5bsb,19,proposer,5,p1p5,submissive,0.0,1,10.0,1.0,3525.2,5.625,2.4285714285714284
ultimatum_game,mklqs5l0,mk:Ultimatum_Game_Real:3,5d1a69d8f97a18001977e0d7,2kti5bsb,20,proposer,5,p4p5,dominant,0.0,0,,,25216.4,5.625,2.4285714285714284
ultimatum_game,mklqs5l0,mk:Ultimatum_Game_Real:3,6039a06979e3544a49aa3912,u17le5xr,1,responder,6,p5p6,submissive,5.0,1,5.0,1.0,4449.5,5.5,2.857142857142857
ultimatum_game,mklqs5l0,mk:Ultimatum_Game_Real:3,6039a06979e3544a49aa3912,u17le5xr,2,responder,6,p4p6,dominant,0.0,0,,,,5.5,2.857142857142857
ultimatum_game,mklqs5l0,mk:Ultimatum_Game_Real:3,6039a06979e3544a49aa3912,u17le5xr,3,responder,6,p2p6,submissive,5.0,1,5.0,1.0,9392.5,5.5,2.857142857142857
ultimatum_game,mklqs5l0,mk:Ultimatum_Game_Real:3,6039a06979e3544a49aa3912,u17le5xr,4,responder,6,p3p6,dominant,5.0,1,5.0,1.0,4697.4,5.5,2.857142857142857
ultimatum_game,mklqs5l0,mk:Ultimatum_Game_Real:3,6039a06979e3544a49aa3912,u17le5xr,5,responder,6,p1p6,submissive,5.0,1,5.0,1.0,3600.1,5.5,2.857142857142857
ultimatum_game,mklqs5l0,mk:Ultimatum_Game_Real:3,6039a06979e3544a49aa3912,u17le5xr,6,proposer,6,p5p6,dominant,5.0,1,5.0,1.0,9411.3,5.5,2.857142857142857
ultimatum_game,mklqs5l0,mk:Ultimatum_Game_Real:3,6039a06979e3544a49aa3912,u17le5xr,7,proposer,6,p4p6,submissive,0.0,1,5.0,,6598.7,5.5,2.857142857142857
ultimatum_game,mklqs5l0,mk:Ultimatum_Game_Real:3,6039a06979e3544a49aa3912,u17le5xr,8,proposer,6,p2p6,dominant,5.0,1,5.0,1.0,5109.4,5.5,2.857142857142857
ultimatum_game,mklqs5l0,mk:Ultimatum_Game_Real:3,6039a06979e3544a49aa3912,u17le5xr,9,proposer,6,p3p6,dominant,5.0,1,5.0,1.0,5332.2,5.5,2.857142857142857
ultimatum_game,mklqs5l0,mk:Ultimatum_Game_Real:3,6039a06979e3544a49aa3912,u17le5xr,10,proposer,6,p1p6,dominant,5.0,1,5.0,1.0,4479.3,5.5,2.857142857142857
ultimatum_game,mklqs5l0,mk:Ultimatum_Game_Real:3,6039a06979e3544a49aa3912,u17le5xr,11,responder,6,p5p6,dominant,10.0,1,10.0,1.0,5143.0,5.5,2.857142857142857
ultimatum_game,mklqs5l0,mk:Ultimatum_Game_Real:3,6039a06979e3544a49aa3912,u17le5xr,12,responder,6,p4p6,dominant,0.0,0,,,,5.5,2.857142857142857
ultimatum_game,mklqs5l0,mk:Ultimatum_Game_Real:3,6039a06979e3544a49aa3912,u17le5xr,13,responder,6,p2p6,dominant,5.0,1,5.0,1.0,6028.2,5.5,2.857142857142857
ultimatum_game,mklqs5l0,mk:Ultimatum_Game_Real:3,6039a06979e3544a49aa3912,u17le5xr,14,responder,6,p3p6,submissive,4.0,1,4.0,1.0,4615.2,5.5,2.857142857142857
ultimatum_game,mklqs5l0,mk:Ultimatum_Game_Real:3,6039a06979e3544a49aa3912,u17le5xr,15,responder,6,p1p6,dominant,5.0,1,5.0,1.0,5442.5,5.5,2.857142857142857
ultimatum_game,mklqs5l0,mk:Ultimatum_Game_Real:3,6039a06979e3544a49aa3912,u17le5xr,16,proposer,6,p5p6,submissive,10.0,1,0.0,1.0,15846.5,5.5,2.857142857142857
ultimatum_game,mklqs5l0,mk:Ultimatum_Game_Real:3,6039a06979e3544a49aa3912,u17le5xr,17,proposer,6,p4p6,submissive,0.0,1,5.0,,6308.4,5.5,2.857142857142857
ultimatum_game,mklqs5l0,mk:Ultimatum_Game_Real:3,6039a06979e3544a49aa3912,u17le5xr,18,proposer,6,p2p6,submissive,5.0,1,5.0,1.0,3000.1,5.5,2.857142857142857
ultimatum_game,mklqs5l0,mk:Ultimatum_Game_Real:3,6039a06979e3544a49aa3912,u17le5xr,19,proposer,6,p3p6,submissive,5.0,1,5.0,1.0,5459.9,5.5,2.857142857142857
ultimatum_game,mklqs5l0,mk:Ultimatum_Game_Real:3,6039a06979e3544a49aa3912,u17le5xr,20,proposer,6,p1p6,submissive,5.0,1,5.0,1.0,2545.4,5.5,2.857142857142857
ultimatum_game,080ps8pg,mk:Ultimatum_Game_Real:4,62fb815742ef6b0275cfa14a,rpa0p4l4,1,proposer,1,p1p2,dominant,5.0,1,5.0,1.0,6924.1,5.25,3.0
ultimatum_game,080ps8pg,mk:Ultimatum_Game_Real:4,62fb815742ef6b0275cfa14a,rpa0p4l4,2,proposer,1,p1p3,submissive,5.0,1,5.0,1.0,2391.7,5.25,3.0
ultimatum_game,080ps8pg,mk:Ultimatum_Game_Real:4,62fb815742ef6b0275cfa14a,rpa0p4l4,3,proposer,1,p1p4,dominant,5.0,1,5.0,1.0,4110.3,5.25,3.0
ultimatum_game,080ps8pg,mk:Ultimatum_Game_Real:4,62fb815742ef6b0275cfa14a,rpa0p4l4,4,proposer,1,p1p5,submissive,5.0,1,5.0,1.0,2222.5,5.25,3.0
ultimatum_game,080ps8pg,mk:Ultimatum_Game_Real:4,62fb815742ef6b0275cfa14a,rpa0p4l4,5,proposer,1,p1p6,dominant,5.0,1,5.0,1.0,2110.3,5.25,3.0
ultimatum_game,080ps8pg,mk:Ultimatum_Game_Real:4,62fb815742ef6b0275cfa14a,rpa0p4l4,6,responder,1,p1p2,dominant,5.0,1,5.0,1.0,4397.3,5.25,3.0
ultimatum_game,080ps8pg,mk:Ultimatum_Game_Real:4,62fb815742ef6b0275cfa14a,rpa0p4l4,7,responder,1,p1p3,dominant,5.0,1,5.0,1.0,3476.5,5.25,3.0
ultimatum_game,080ps8pg,mk:Ultimatum_Game_Real:4,62fb815742ef6b0275cfa14a,rpa0p4l4,8,responder,1,p1p4,submissive,5.0,1,5.0,1.0,2943.0,5.25,3.0
ultimatum_game,080ps8pg,mk:Ultimatum_Game_Real:4,62fb815742ef6b0275cfa14a,rpa0p4l4,9,responder,1,p1p5,submissive,9.0,1,9.0,1.0,3659.6,5.25,3.0
ultimatum_game,080ps8pg,mk:Ultimatum_Game_Real:4,62fb815742ef6b0275cfa14a,rpa0p4l4,10,responder,1,p1p6,submissive,5.0,1,5.0,1.0,3607.3,5.25,3.0
ultimatum_game,080ps8pg,mk:Ultimatum_Game_Real:4,62fb815742ef6b0275cfa14a,rpa0p4l4,11,proposer,1,p1p2,submissive,5.0,1,5.0,1.0,2694.6,5.25,3.0
ultimatum_game,080ps8pg,mk:Ultimatum_Game_Real:4,62fb815742ef6b0275cfa14a,rpa0p4l4,12,proposer,1,p1p3,dominant,5.0,1,5.0,1.0,2733.0,5.25,3.0
ultimatum_game,080ps8pg,mk:Ultimatum_Game_Real:4,62fb815742ef6b0275cfa14a,rpa0p4l4,13,proposer,1,p1p4,submissive,5.0,1,5.0,1.0,2668.2,5.25,3.0
ultimatum_game,080ps8pg,mk:Ultimatum_Game_Real:4,62fb815742ef6b0275cfa14a,rpa0p4l4,14,proposer,1,p1p5,dominant,5.0,1,5.0,1.0,2670.6,5.25,3.0
ultimatum_game,080ps8pg,mk:Ultimatum_Game_Real:4,62fb815742ef6b0275cfa14a,rpa0p4l4,15,proposer,1,p1p6,submissive,5.0,1,5.0,1.0,2371.1,5.25,3.0
ultimatum_game,080ps8pg,mk:Ultimatum_Game_Real:4,62fb815742ef6b0275cfa14a,rpa0p4l4,16,responder,1,p1p2,submissive,10.0,1,10.0,1.0,3498.2,5.25,3.0
ultimatum_game,080ps8pg,mk:Ultimatum_Game_Real:4,62fb815742ef6b0275cfa14a,rpa0p4l4,17,responder,1,p1p3,submissive,5.0,1,5.0,1.0,5285.2,5.25,3.0
ultimatum_game,080ps8pg,mk:Ultimatum_Game_Real:4,62fb815742ef6b0275cfa14a,rpa0p4l4,18,responder,1,p1p4,dominant,5.0,1,5.0,1.0,3077.3,5.25,3.0
ultimatum_game,080ps8pg,mk:Ultimatum_Game_Real:4,62fb815742ef6b0275cfa14a,rpa0p4l4,19,responder,1,p1p5,dominant,5.0,1,5.0,1.0,3098.3,5.25,3.0
ultimatum_game,080ps8pg,mk:Ultimatum_Game_Real:4,62fb815742ef6b0275cfa14a,rpa0p4l4,20,responder,1,p1p6,dominant,5.0,1,5.0,1.0,2625.6,5.25,3.0
ultimatum_game,080ps8pg,mk:Ultimatum_Game_Real:4,63cfee94707bca4ddee3eb05,rfs2v6rq,1,responder,2,p1p2,submissive,5.0,1,5.0,1.0,4212.8,4.375,1.8571428571428568
ultimatum_game,080ps8pg,mk:Ultimatum_Game_Real:4,63cfee94707bca4ddee3eb05,rfs2v6rq,2,proposer,2,p2p5,dominant,5.0,1,5.0,1.0,2786.9,4.375,1.8571428571428568
ultimatum_game,080ps8pg,mk:Ultimatum_Game_Real:4,63cfee94707bca4ddee3eb05,rfs2v6rq,3,proposer,2,p2p6,dominant,5.0,1,5.0,1.0,3429.0,4.375,1.8571428571428568
ultimatum_game,080ps8pg,mk:Ultimatum_Game_Real:4,63cfee94707bca4ddee3eb05,rfs2v6rq,4,proposer,2,p2p4,submissive,5.0,1,5.0,1.0,8267.7,4.375,1.8571428571428568
ultimatum_game,080ps8pg,mk:Ultimatum_Game_Real:4,63cfee94707bca4ddee3eb05,rfs2v6rq,5,proposer,2,p2p3,dominant,5.0,1,5.0,1.0,2773.9,4.375,1.8571428571428568
ultimatum_game,080ps8pg,mk:Ultimatum_Game_Real:4,63cfee94707bca4ddee3eb05,rfs2v6rq,6,proposer,2,p1p2,submissive,5.0,1,5.0,1.0,2561.3,4.375,1.8571428571428568
ultimatum_game,080ps8pg,mk:Ultimatum_Game_Real:4,63cfee94707bca4ddee3eb05,rfs2v6rq,7,responder,2,p2p5,dominant,10.0,1,10.0,1.0,3158.4,4.375,1.8571428571428568
ultimatum_game,080ps8pg,mk:Ultimatum_Game_Real:4,63cfee94707bca4ddee3eb05,rfs2v6rq,8,responder,2,p2p6,submissive,5.0,1,5.0,1.0,4408.8,4.375,1.8571428571428568
ultimatum_game,080ps8pg,mk:Ultimatum_Game_Real:4,63cfee94707bca4ddee3eb05,rfs2v6rq,9,responder,2,p2p4,dominant,5.0,1,5.0,1.0,3186.2,4.375,1.8571428571428568
ultimatum_game,080ps8pg,mk:Ultimatum_Game_Real:4,63cfee94707bca4ddee3eb05,rfs2v6rq,10,responder,2,p2p3,submissive,5.0,1,5.0,1.0,2599.0,4.375,1.8571428571428568
ultimatum_game,080ps8pg,mk:Ultimatum_Game_Real:4,63cfee94707bca4ddee3eb05,rfs2v6rq,11,responder,2,p1p2,dominant,5.0,1,5.0,1.0,3562.0,4.375,1.8571428571428568
ultimatum_game,080ps8pg,mk:Ultimatum_Game_Real:4,63cfee94707bca4ddee3eb05,rfs2v6rq,12,proposer,2,p2p5,submissive,0.0,1,10.0,1.0,2796.4,4.375,1.8571428571428568
ultimatum_game,080ps8pg,mk:Ultimatum_Game_Real:4,63cfee94707bca4ddee3eb05,rfs2v6rq,13,proposer,2,p2p6,submissive,5.0,1,5.0,1.0,4062.2,4.375,1.8571428571428568
ultimatum_game,080ps8pg,mk:Ultimatum_Game_Real:4,63cfee94707bca4ddee3eb05,rfs2v6rq,14,proposer,2,p2p4,dominant,5.0,1,5.0,1.0,3455.5,4.375,1.8571428571428568
ultimatum_game,080ps8pg,mk:Ultimatum_Game_Real:4,63cfee94707bca4ddee3eb05,rfs2v6rq,15,proposer,2,p2p3,submissive,5.0,1,5.0,1.0,16714.5,4.375,1.8571428571428568
ultimatum_game,080ps8pg,mk:Ultimatum_Game_Real:4,63cfee94707bca4ddee3eb05,rfs2v6rq,16,proposer,2,p1p2,dominant,0.0,1,10.0,1.0,2611.7,4.375,1.8571428571428568
ultimatum_game,080ps8pg,mk:Ultimatum_Game_Real:4,63cfee94707bca4ddee3eb05,rfs2v6rq,17,responder,2,p2p5,submissive,10.0,1,10.0,1.0,2649.3,4.375,1.8571428571428568
ultimatum_game,080ps8pg,mk:Ultimatum_Game_Real:4,63cfee94707bca4ddee3eb05,rfs2v6rq,18,responder,2,p2p6,dominant,5.0,1,5.0,1.0,4221.2,4.375,1.8571428571428568
ultimatum_game,080ps8pg,mk:Ultimatum_Game_Real:4,63cfee94707bca4ddee3eb05,rfs2v6rq,19,responder,2,p2p4,submissive,5.0,1,5.0,1.0,5487.5,4.375,1.8571428571428568
ultimatum_game,080ps8pg,mk:Ultimatum_Game_Real:4,63cfee94707bca4ddee3eb05,rfs2v6rq,20,responder,2,p2p3,dominant,5.0,1,5.0,1.0,4230.5,4.375,1.8571428571428568
ultimatum_game,080ps8pg,mk:Ultimatum_Game_Real:4,62c5d0cfdf443d24e054d302,xm626up3,1,proposer,3,p3p4,submissive,6.0,1,4.0,1.0,9521.4,4.75,3.142857142857143
ultimatum_game,080ps8pg,mk:Ultimatum_Game_Real:4,62c5d0cfdf443d24e054d302,xm626up3,2,responder,3,p1p3,dominant,5.0,1,5.0,1.0,11107.7,4.75,3.142857142857143
ultimatum_game,080ps8pg,mk:Ultimatum_Game_Real:4,62c5d0cfdf443d24e054d302,xm626up3,3,proposer,3,p3p5,dominant,5.0,1,5.0,1.0,8991.4,4.75,3.142857142857143
ultimatum_game,080ps8pg,mk:Ultimatum_Game_Real:4,62c5d0cfdf443d24e054d302,xm626up3,4,proposer,3,p3p6,submissive,5.0,1,5.0,1.0,10806.9,4.75,3.142857142857143
ultimatum_game,080ps8pg,mk:Ultimatum_Game_Real:4,62c5d0cfdf443d24e054d302,xm626up3,5,responder,3,p2p3,submissive,5.0,1,5.0,1.0,6319.1,4.75,3.142857142857143
ultimatum_game,080ps8pg,mk:Ultimatum_Game_Real:4,62c5d0cfdf443d24e054d302,xm626up3,6,responder,3,p3p4,dominant,5.0,1,5.0,1.0,6200.2,4.75,3.142857142857143
ultimatum_game,080ps8pg,mk:Ultimatum_Game_Real:4,62c5d0cfdf443d24e054d302,xm626up3,7,proposer,3,p1p3,submissive,5.0,1,5.0,1.0,7635.7,4.75,3.142857142857143
ultimatum_game,080ps8pg,mk:Ultimatum_Game_Real:4,62c5d0cfdf443d24e054d302,xm626up3,8,responder,3,p3p5,dominant,10.0,1,10.0,1.0,8289.3,4.75,3.142857142857143
ultimatum_game,080ps8pg,mk:Ultimatum_Game_Real:4,62c5d0cfdf443d24e054d302,xm626up3,9,responder,3,p3p6,submissive,0.0,1,3.0,0.0,10420.5,4.75,3.142857142857143
ultimatum_game,080ps8pg,mk:Ultimatum_Game_Real:4,62c5d0cfdf443d24e054d302,xm626up3,10,proposer,3,p2p3,dominant,5.0,1,5.0,1.0,5421.8,4.75,3.142857142857143
ultimatum_game,080ps8pg,mk:Ultimatum_Game_Real:4,62c5d0cfdf443d24e054d302,xm626up3,11,proposer,3,p3p4,dominant,5.0,1,5.0,1.0,6764.9,4.75,3.142857142857143
ultimatum_game,080ps8pg,mk:Ultimatum_Game_Real:4,62c5d0cfdf443d24e054d302,xm626up3,12,responder,3,p1p3,submissive,5.0,1,5.0,1.0,9646.8,4.75,3.142857142857143
ultimatum_game,080ps8pg,mk:Ultimatum_Game_Real:4,62c5d0cfdf443d24e054d302,xm626up3,13,proposer,3,p3p5,submissive,5.0,1,5.0,1.0,8437.1,4.75,3.142857142857143
ultimatum_game,080ps8pg,mk:Ultimatum_Game_Real:4,62c5d0cfdf443d24e054d302,xm626up3,14,proposer,3,p3p6,dominant,5.0,1,5.0,1.0,3585.4,4.75,3.142857142857143
ultimatum_game,080ps8pg,mk:Ultimatum_Game_Real:4,62c5d0cfdf443d24e054d302,xm626up3,15,responder,3,p2p3,dominant,5.0,1,5.0,1.0,4145.9,4.75,3.142857142857143
ultimatum_game,080ps8pg,mk:Ultimatum_Game_Real:4,62c5d0cfdf443d24e054d302,xm626up3,16,responder,3,p3p4,submissive,5.0,1,5.0,1.0,7659.6,4.75,3.142857142857143
ultimatum_game,080ps8pg,mk:Ultimatum_Game_Real:4,62c5d0cfdf443d24e054d302,xm626up3,17,proposer,3,p1p3,dominant,5.0,1,5.0,1.0,8463.1,4.75,3.142857142857143
ultimatum_game,080ps8pg,mk:Ultimatum_Game_Real:4,62c5d0cfdf443d24e054d302,xm626up3,18,responder,3,p3p5,submissive,5.0,1,5.0,1.0,8845.7,4.75,3.142857142857143
ultimatum_game,080ps8pg,mk:Ultimatum_Game_Real:4,62c5d0cfdf443d24e054d302,xm626up3,19,responder,3,p3p6,dominant,5.0,1,5.0,1.0,6572.0,4.75,3.142857142857143
ultimatum_game,080ps8pg,mk:Ultimatum_Game_Real:4,62c5d0cfdf443d24e054d302,xm626up3,20,proposer,3,p2p3,submissive,5.0,1,5.0,1.0,5163.3,4.75,3.142857142857143
ultimatum_game,080ps8pg,mk:Ultimatum_Game_Real:4,65be5c84defe30b60960f46f,c6trzk7b,1,responder,4,p3p4,dominant,4.0,1,4.0,1.0,9522.6,4.75,4.428571428571429
ultimatum_game,080ps8pg,mk:Ultimatum_Game_Real:4,65be5c84defe30b60960f46f,c6trzk7b,2,proposer,4,p4p6,submissive,5.0,1,5.0,1.0,5649.9,4.75,4.428571428571429
ultimatum_game,080ps8pg,mk:Ultimatum_Game_Real:4,65be5c84defe30b60960f46f,c6trzk7b,3,responder,4,p1p4,submissive,5.0,1,5.0,1.0,7189.1,4.75,4.428571428571429
ultimatum_game,080ps8pg,mk:Ultimatum_Game_Real:4,65be5c84defe30b60960f46f,c6trzk7b,4,responder,4,p2p4,dominant,5.0,1,5.0,1.0,7867.8,4.75,4.428571428571429
ultimatum_game,080ps8pg,mk:Ultimatum_Game_Real:4,65be5c84defe30b60960f46f,c6trzk7b,5,proposer,4,p4p5,dominant,5.0,1,5.0,1.0,5954.5,4.75,4.428571428571429
ultimatum_game,080ps8pg,mk:Ultimatum_Game_Real:4,65be5c84defe30b60960f46f,c6trzk7b,6,proposer,4,p3p4,submissive,5.0,1,5.0,1.0,5636.5,4.75,4.428571428571429
ultimatum_game,080ps8pg,mk:Ultimatum_Game_Real:4,65be5c84defe30b60960f46f,c6trzk7b,7,responder,4,p4p6,dominant,5.0,1,5.0,1.0,9124.9,4.75,4.428571428571429
ultimatum_game,080ps8pg,mk:Ultimatum_Game_Real:4,65be5c84defe30b60960f46f,c6trzk7b,8,proposer,4,p1p4,dominant,5.0,1,5.0,1.0,2891.8,4.75,4.428571428571429
ultimatum_game,080ps8pg,mk:Ultimatum_Game_Real:4,65be5c84defe30b60960f46f,c6trzk7b,9,proposer,4,p2p4,submissive,5.0,1,5.0,1.0,6777.2,4.75,4.428571428571429
ultimatum_game,080ps8pg,mk:Ultimatum_Game_Real:4,65be5c84defe30b60960f46f,c6trzk7b,10,responder,4,p4p5,submissive,10.0,1,10.0,1.0,5206.8,4.75,4.428571428571429
ultimatum_game,080ps8pg,mk:Ultimatum_Game_Real:4,65be5c84defe30b60960f46f,c6trzk7b,11,responder,4,p3p4,submissive,5.0,1,5.0,1.0,5110.2,4.75,4.428571428571429
ultimatum_game,080ps8pg,mk:Ultimatum_Game_Real:4,65be5c84defe30b60960f46f,c6trzk7b,12,proposer,4,p4p6,submissive,0.0,1,10.0,1.0,6234.8,4.75,4.428571428571429
ultimatum_game,080ps8pg,mk:Ultimatum_Game_Real:4,65be5c84defe30b60960f46f,c6trzk7b,13,responder,4,p1p4,dominant,5.0,1,5.0,1.0,5300.5,4.75,4.428571428571429
ultimatum_game,080ps8pg,mk:Ultimatum_Game_Real:4,65be5c84defe30b60960f46f,c6trzk7b,14,responder,4,p2p4,submissive,5.0,1,5.0,1.0,9201.8,4.75,4.428571428571429
ultimatum_game,080ps8pg,mk:Ultimatum_Game_Real:4,65be5c84defe30b60960f46f,c6trzk7b,15,proposer,4,p4p5,dominant,0.0,1,10.0,0.0,4256.2,4.75,4.428571428571429
ultimatum_game,080ps8pg,mk:Ultimatum_Game_Real:4,65be5c84defe30b60960f46f,c6trzk7b,16,proposer,4,p3p4,dominant,5.0,1,5.0,1.0,7517.7,4.75,4.428571428571429
ultimatum_game,080ps8pg,mk:Ultimatum_Game_Real:4,65be5c84defe30b60960f46f,c6trzk7b,17,responder,4,p4p6,dominant,5.0,1,5.0,1.0,4187.9,4.75,4.428571428571429
ultimatum_game,080ps8pg,mk:Ultimatum_Game_Real:4,65be5c84defe30b60960f46f,c6trzk7b,18,proposer,4,p1p4,submissive,5.0,1,5.0,1.0,7002.0,4.75,4.428571428571429
ultimatum_game,080ps8pg,mk:Ultimatum_Game_Real:4,65be5c84defe30b60960f46f,c6trzk7b,19,proposer,4,p2p4,dominant,5.0,1,5.0,1.0,4315.9,4.75,4.428571428571429
ultimatum_game,080ps8pg,mk:Ultimatum_Game_Real:4,65be5c84defe30b60960f46f,c6trzk7b,20,responder,4,p4p5,submissive,5.0,1,5.0,1.0,6540.2,4.75,4.428571428571429
ultimatum_game,080ps8pg,mk:Ultimatum_Game_Real:4,660207c28ad9227816c9593d,mezvzfgx,1,proposer,5,p5p6,dominant,5.0,1,5.0,1.0,8340.5,3.625,3.142857142857143
ultimatum_game,080ps8pg,mk:Ultimatum_Game_Real:4,660207c28ad9227816c9593d,mezvzfgx,2,responder,5,p2p5,submissive,5.0,1,5.0,1.0,3256.0,3.625,3.142857142857143
ultimatum_game,080ps8pg,mk:Ultimatum_Game_Real:4,660207c28ad9227816c9593d,mezvzfgx,3,responder,5,p3p5,submissive,5.0,1,5.0,1.0,4203.3,3.625,3.142857142857143
ultimatum_game,080ps8pg,mk:Ultimatum_Game_Real:4,660207c28ad9227816c9593d,mezvzfgx,4,responder,5,p1p5,dominant,5.0,1,5.0,1.0,4517.3,3.625,3.142857142857143
ultimatum_game,080ps8pg,mk:Ultimatum_Game_Real:4,660207c28ad9227816c9593d,mezvzfgx,5,responder,5,p4p5,submissive,5.0,1,5.0,1.0,5050.3,3.625,3.142857142857143
ultimatum_game,080ps8pg,mk:Ultimatum_Game_Real:4,660207c28ad9227816c9593d,mezvzfgx,6,responder,5,p5p6,submissive,6.0,1,6.0,1.0,5723.7,3.625,3.142857142857143
ultimatum_game,080ps8pg,mk:Ultimatum_Game_Real:4,660207c28ad9227816c9593d,mezvzfgx,7,proposer,5,p2p5,submissive,0.0,1,10.0,1.0,3656.6,3.625,3.142857142857143
ultimatum_game,080ps8pg,mk:Ultimatum_Game_Real:4,660207c28ad9227816c9593d,mezvzfgx,8,proposer,5,p3p5,submissive,0.0,1,10.0,1.0,2615.4,3.625,3.142857142857143
ultimatum_game,080ps8pg,mk:Ultimatum_Game_Real:4,660207c28ad9227816c9593d,mezvzfgx,9,proposer,5,p1p5,dominant,1.0,1,9.0,1.0,3021.8,3.625,3.142857142857143
ultimatum_game,080ps8pg,mk:Ultimatum_Game_Real:4,660207c28ad9227816c9593d,mezvzfgx,10,proposer,5,p4p5,dominant,0.0,1,10.0,1.0,2394.2,3.625,3.142857142857143
ultimatum_game,080ps8pg,mk:Ultimatum_Game_Real:4,660207c28ad9227816c9593d,mezvzfgx,11,proposer,5,p5p6,submissive,0.0,1,10.0,1.0,3950.8,3.625,3.142857142857143
ultimatum_game,080ps8pg,mk:Ultimatum_Game_Real:4,660207c28ad9227816c9593d,mezvzfgx,12,responder,5,p2p5,dominant,10.0,1,10.0,1.0,3287.5,3.625,3.142857142857143
ultimatum_game,080ps8pg,mk:Ultimatum_Game_Real:4,660207c28ad9227816c9593d,mezvzfgx,13,responder,5,p3p5,dominant,5.0,1,5.0,1.0,2720.6,3.625,3.142857142857143
ultimatum_game,080ps8pg,mk:Ultimatum_Game_Real:4,660207c28ad9227816c9593d,mezvzfgx,14,responder,5,p1p5,submissive,5.0,1,5.0,1.0,2698.8,3.625,3.142857142857143
ultimatum_game,080ps8pg,mk:Ultimatum_Game_Real:4,660207c28ad9227816c9593d,mezvzfgx,15,responder,5,p4p5,submissive,0.0,1,10.0,0.0,1933.7,3.625,3.142857142857143
ultimatum_game,080ps8pg,mk:Ultimatum_Game_Real:4,660207c28ad9227816c9593d,mezvzfgx,16,responder,5,p5p6,dominant,5.0,1,5.0,1.0,2671.4,3.625,3.142857142857143
ultimatum_game,080ps8pg,mk:Ultimatum_Game_Real:4,660207c28ad9227816c9593d,mezvzfgx,17,proposer,5,p2p5,dominant,0.0,1,10.0,1.0,2369.6,3.625,3.142857142857143
ultimatum_game,080ps8pg,mk:Ultimatum_Game_Real:4,660207c28ad9227816c9593d,mezvzfgx,18,proposer,5,p3p5,dominant,5.0,1,5.0,1.0,2819.6,3.625,3.142857142857143
ultimatum_game,080ps8pg,mk:Ultimatum_Game_Real:4,660207c28ad9227816c9593d,mezvzfgx,19,proposer,5,p1p5,submissive,5.0,1,5.0,1.0,2519.7,3.625,3.142857142857143
ultimatum_game,080ps8pg,mk:Ultimatum_Game_Real:4,660207c28ad9227816c9593d,mezvzfgx,20,proposer,5,p4p5,dominant,5.0,1,5.0,1.0,4123.2,3.625,3.142857142857143
ultimatum_game,080ps8pg,mk:Ultimatum_Game_Real:4,62b626b7cc2365d4e7f5c5aa,e1zoqvu6,1,responder,6,p5p6,submissive,5.0,1,5.0,1.0,5204.8,2.875,2.857142857142857
ultimatum_game,080ps8pg,mk:Ultimatum_Game_Real:4,62b626b7cc2365d4e7f5c5aa,e1zoqvu6,2,responder,6,p4p6,dominant,5.0,1,5.0,1.0,2941.6,2.875,2.857142857142857
ultimatum_game,080ps8pg,mk:Ultimatum_Game_Real:4,62b626b7cc2365d4e7f5c5aa,e1zoqvu6,3,responder,6,p2p6,submissive,5.0,1,5.0,1.0,2709.6,2.875,2.857142857142857
ultimatum_game,080ps8pg,mk:Ultimatum_Game_Real:4,62b626b7cc2365d4e7f5c5aa,e1zoqvu6,4,responder,6,p3p6,dominant,5.0,1,5.0,1.0,2649.5,2.875,2.857142857142857
ultimatum_game,080ps8pg,mk:Ultimatum_Game_Real:4,62b626b7cc2365d4e7f5c5aa,e1zoqvu6,5,responder,6,p1p6,submissive,5.0,1,5.0,1.0,3172.0,2.875,2.857142857142857
ultimatum_game,080ps8pg,mk:Ultimatum_Game_Real:4,62b626b7cc2365d4e7f5c5aa,e1zoqvu6,6,proposer,6,p5p6,dominant,4.0,1,6.0,1.0,7776.9,2.875,2.857142857142857
ultimatum_game,080ps8pg,mk:Ultimatum_Game_Real:4,62b626b7cc2365d4e7f5c5aa,e1zoqvu6,7,proposer,6,p4p6,submissive,5.0,1,5.0,1.0,1905.3,2.875,2.857142857142857
ultimatum_game,080ps8pg,mk:Ultimatum_Game_Real:4,62b626b7cc2365d4e7f5c5aa,e1zoqvu6,8,proposer,6,p2p6,dominant,5.0,1,5.0,1.0,2625.5,2.875,2.857142857142857
ultimatum_game,080ps8pg,mk:Ultimatum_Game_Real:4,62b626b7cc2365d4e7f5c5aa,e1zoqvu6,9,proposer,6,p3p6,dominant,0.0,1,3.0,0.0,6440.0,2.875,2.857142857142857
ultimatum_game,080ps8pg,mk:Ultimatum_Game_Real:4,62b626b7cc2365d4e7f5c5aa,e1zoqvu6,10,proposer,6,p1p6,dominant,5.0,1,5.0,1.0,3619.9,2.875,2.857142857142857
ultimatum_game,080ps8pg,mk:Ultimatum_Game_Real:4,62b626b7cc2365d4e7f5c5aa,e1zoqvu6,11,responder,6,p5p6,dominant,10.0,1,10.0,1.0,4333.9,2.875,2.857142857142857
ultimatum_game,080ps8pg,mk:Ultimatum_Game_Real:4,62b626b7cc2365d4e7f5c5aa,e1zoqvu6,12,responder,6,p4p6,dominant,10.0,1,10.0,1.0,4981.5,2.875,2.857142857142857
ultimatum_game,080ps8pg,mk:Ultimatum_Game_Real:4,62b626b7cc2365d4e7f5c5aa,e1zoqvu6,13,responder,6,p2p6,dominant,5.0,1,5.0,1.0,3185.9,2.875,2.857142857142857
ultimatum_game,080ps8pg,mk:Ultimatum_Game_Real:4,62b626b7cc2365d4e7f5c5aa,e1zoqvu6,14,responder,6,p3p6,submissive,5.0,1,5.0,1.0,2713.0,2.875,2.857142857142857
ultimatum_game,080ps8pg,mk:Ultimatum_Game_Real:4,62b626b7cc2365d4e7f5c5aa,e1zoqvu6,15,responder,6,p1p6,dominant,5.0,1,5.0,1.0,2820.9,2.875,2.857142857142857
ultimatum_game,080ps8pg,mk:Ultimatum_Game_Real:4,62b626b7cc2365d4e7f5c5aa,e1zoqvu6,16,proposer,6,p5p6,submissive,5.0,1,5.0,1.0,2400.6,2.875,2.857142857142857
ultimatum_game,080ps8pg,mk:Ultimatum_Game_Real:4,62b626b7cc2365d4e7f5c5aa,e1zoqvu6,17,proposer,6,p4p6,submissive,5.0,1,5.0,1.0,4071.8,2.875,2.857142857142857
ultimatum_game,080ps8pg,mk:Ultimatum_Game_Real:4,62b626b7cc2365d4e7f5c5aa,e1zoqvu6,18,proposer,6,p2p6,submissive,5.0,1,5.0,1.0,2219.4,2.875,2.857142857142857
ultimatum_game,080ps8pg,mk:Ultimatum_Game_Real:4,62b626b7cc2365d4e7f5c5aa,e1zoqvu6,19,proposer,6,p3p6,submissive,5.0,1,5.0,1.0,1787.8,2.875,2.857142857142857
ultimatum_game,080ps8pg,mk:Ultimatum_Game_Real:4,62b626b7cc2365d4e7f5c5aa,e1zoqvu6,20,proposer,6,p1p6,submissive,5.0,1,5.0,1.0,2502.5,2.875,2.857142857142857
