sid,session_code,mk_session,prolific_id,participant_code,round_nb,role,player,dyad,manipulation,trial_payoff,responded,sent_amount,offer_response,rt,mean_social_dominance,mean_aggresive_dominance
ultimatum_game,dogizqxo,mk:Ultimatum_Game_Pilot4:1,665d9797303623aeb81d13d2,odegsytd,1,proposer,1,p1p2,dominant,5,1,10,1,6177.9,5.5,4.714285714285714
ultimatum_game,dogizqxo,mk:Ultimatum_Game_Pilot4:1,665d9797303623aeb81d13d2,odegsytd,2,responder,1,p1p3,submissive,10,1,10,1,6807.8,5.5,4.714285714285714
ultimatum_game,dogizqxo,mk:Ultimatum_Game_Pilot4:1,665d9797303623aeb81d13d2,odegsytd,3,proposer,1,p1p4,dominant,5,1,10,1,2416.2,5.5,4.714285714285714
ultimatum_game,dogizqxo,mk:Ultimatum_Game_Pilot4:1,665d9797303623aeb81d13d2,odegsytd,4,proposer,1,p1p5,submissive,5,1,10,1,3098.4,5.5,4.714285714285714
ultimatum_game,dogizqxo,mk:Ultimatum_Game_Pilot4:1,665d9797303623aeb81d13d2,odegsytd,5,responder,1,p1p6,dominant,7,1,7,1,4740.1,5.5,4.714285714285714
ultimatum_game,dogizqxo,mk:Ultimatum_Game_Pilot4:1,665d9797303623aeb81d13d2,odegsytd,6,responder,1,p1p2,dominant,10.0,1,10,1.0,4349.9,5.5,4.714285714285714
ultimatum_game,dogizqxo,mk:Ultimatum_Game_Pilot4:1,665d9797303623aeb81d13d2,odegsytd,7,proposer,1,p1p3,dominant,5,1,10,1,3941.8,5.5,4.714285714285714
ultimatum_game,dogizqxo,mk:Ultimatum_Game_Pilot4:1,665d9797303623aeb81d13d2,odegsytd,8,responder,1,p1p4,submissive,10,1,10,1,2978.0,5.5,4.714285714285714
ultimatum_game,dogizqxo,mk:Ultimatum_Game_Pilot4:1,665d9797303623aeb81d13d2,odegsytd,9,responder,1,p1p5,submissive,8,1,8,1,2372.5,5.5,4.714285714285714
ultimatum_game,dogizqxo,mk:Ultimatum_Game_Pilot4:1,665d9797303623aeb81d13d2,odegsytd,10,proposer,1,p1p6,submissive,5,1,10,1,2247.6,5.5,4.714285714285714
ultimatum_game,dogizqxo,mk:Ultimatum_Game_Pilot4:1,665d9797303623aeb81d13d2,odegsytd,11,proposer,1,p1p2,submissive,5,1,10,1,2450.4,5.5,4.714285714285714
ultimatum_game,dogizqxo,mk:Ultimatum_Game_Pilot4:1,665d9797303623aeb81d13d2,odegsytd,12,responder,1,p1p3,dominant,7,1,7,1,2659.6,5.5,4.714285714285714
ultimatum_game,dogizqxo,mk:Ultimatum_Game_Pilot4:1,665d9797303623aeb81d13d2,odegsytd,13,proposer,1,p1p4,submissive,5,1,10,1,2205.8,5.5,4.714285714285714
ultimatum_game,dogizqxo,mk:Ultimatum_Game_Pilot4:1,665d9797303623aeb81d13d2,odegsytd,14,proposer,1,p1p5,dominant,5,1,10,1,6710.8,5.5,4.714285714285714
ultimatum_game,dogizqxo,mk:Ultimatum_Game_Pilot4:1,665d9797303623aeb81d13d2,odegsytd,15,responder,1,p1p6,submissive,10,1,10,1,5595.0,5.5,4.714285714285714
ultimatum_game,dogizqxo,mk:Ultimatum_Game_Pilot4:1,665d9797303623aeb81d13d2,odegsytd,16,responder,1,p1p2,submissive,10,1,10,1,2217.8,5.5,4.714285714285714
ultimatum_game,dogizqxo,mk:Ultimatum_Game_Pilot4:1,665d9797303623aeb81d13d2,odegsytd,17,proposer,1,p1p3,submissive,5,1,10,1,2837.9,5.5,4.714285714285714
ultimatum_game,dogizqxo,mk:Ultimatum_Game_Pilot4:1,665d9797303623aeb81d13d2,odegsytd,18,responder,1,p1p4,dominant,10,1,10,1,10745.5,5.5,4.714285714285714
ultimatum_game,dogizqxo,mk:Ultimatum_Game_Pilot4:1,665d9797303623aeb81d13d2,odegsytd,19,responder,1,p1p5,dominant,10,1,10,1,4294.4,5.5,4.714285714285714
ultimatum_game,dogizqxo,mk:Ultimatum_Game_Pilot4:1,665d9797303623aeb81d13d2,odegsytd,20,proposer,1,p1p6,dominant,5,1,10,1,4826.1,5.5,4.714285714285714
ultimatum_game,dogizqxo,mk:Ultimatum_Game_Pilot4:1,6512ae672f906eda39b7e9db,6l6sdfbr,1,responder,2,p1p2,submissive,10,1,10,1,4574.0,3.75,2.4285714285714284
ultimatum_game,dogizqxo,mk:Ultimatum_Game_Pilot4:1,6512ae672f906eda39b7e9db,6l6sdfbr,2,proposer,2,p2p5,dominant,0,1,5,0,9672.4,3.75,2.4285714285714284
ultimatum_game,dogizqxo,mk:Ultimatum_Game_Pilot4:1,6512ae672f906eda39b7e9db,6l6sdfbr,3,proposer,2,p2p6,dominant,9,1,6,1,5034.8,3.75,2.4285714285714284
ultimatum_game,dogizqxo,mk:Ultimatum_Game_Pilot4:1,6512ae672f906eda39b7e9db,6l6sdfbr,4,responder,2,p2p4,submissive,10,1,10,1,8077.3,3.75,2.4285714285714284
ultimatum_game,dogizqxo,mk:Ultimatum_Game_Pilot4:1,6512ae672f906eda39b7e9db,6l6sdfbr,5,proposer,2,p2p3,dominant,7,1,8,1,5273.0,3.75,2.4285714285714284
ultimatum_game,dogizqxo,mk:Ultimatum_Game_Pilot4:1,6512ae672f906eda39b7e9db,6l6sdfbr,6,proposer,2,p1p2,submissive,5.0,1,10,1.0,6678.0,3.75,2.4285714285714284
ultimatum_game,dogizqxo,mk:Ultimatum_Game_Pilot4:1,6512ae672f906eda39b7e9db,6l6sdfbr,7,responder,2,p2p5,dominant,8,1,8,1,6028.3,3.75,2.4285714285714284
ultimatum_game,dogizqxo,mk:Ultimatum_Game_Pilot4:1,6512ae672f906eda39b7e9db,6l6sdfbr,8,responder,2,p2p6,submissive,7,1,7,1,5269.8,3.75,2.4285714285714284
ultimatum_game,dogizqxo,mk:Ultimatum_Game_Pilot4:1,6512ae672f906eda39b7e9db,6l6sdfbr,9,proposer,2,p2p4,dominant,8,1,7,1,4377.9,3.75,2.4285714285714284
ultimatum_game,dogizqxo,mk:Ultimatum_Game_Pilot4:1,6512ae672f906eda39b7e9db,6l6sdfbr,10,responder,2,p2p3,submissive,7,1,7,1,6767.4,3.75,2.4285714285714284
ultimatum_game,dogizqxo,mk:Ultimatum_Game_Pilot4:1,6512ae672f906eda39b7e9db,6l6sdfbr,11,responder,2,p1p2,dominant,10,1,10,1,4526.1,3.75,2.4285714285714284
ultimatum_game,dogizqxo,mk:Ultimatum_Game_Pilot4:1,6512ae672f906eda39b7e9db,6l6sdfbr,12,proposer,2,p2p5,submissive,8,1,7,1,3716.8,3.75,2.4285714285714284
ultimatum_game,dogizqxo,mk:Ultimatum_Game_Pilot4:1,6512ae672f906eda39b7e9db,6l6sdfbr,13,proposer,2,p2p6,submissive,7,1,8,1,3219.5,3.75,2.4285714285714284
ultimatum_game,dogizqxo,mk:Ultimatum_Game_Pilot4:1,6512ae672f906eda39b7e9db,6l6sdfbr,14,responder,2,p2p4,dominant,8,1,8,1,7144.3,3.75,2.4285714285714284
ultimatum_game,dogizqxo,mk:Ultimatum_Game_Pilot4:1,6512ae672f906eda39b7e9db,6l6sdfbr,15,proposer,2,p2p3,submissive,8,1,7,1,3076.3,3.75,2.4285714285714284
ultimatum_game,dogizqxo,mk:Ultimatum_Game_Pilot4:1,6512ae672f906eda39b7e9db,6l6sdfbr,16,proposer,2,p1p2,dominant,5,1,10,1,2869.9,3.75,2.4285714285714284
ultimatum_game,dogizqxo,mk:Ultimatum_Game_Pilot4:1,6512ae672f906eda39b7e9db,6l6sdfbr,17,responder,2,p2p5,submissive,8,1,8,1,4141.9,3.75,2.4285714285714284
ultimatum_game,dogizqxo,mk:Ultimatum_Game_Pilot4:1,6512ae672f906eda39b7e9db,6l6sdfbr,18,responder,2,p2p6,submissive,7,1,7,1,4308.8,3.75,2.4285714285714284
ultimatum_game,dogizqxo,mk:Ultimatum_Game_Pilot4:1,6512ae672f906eda39b7e9db,6l6sdfbr,19,proposer,2,p2p4,submissive,8,1,7,1,4990.0,3.75,2.4285714285714284
ultimatum_game,dogizqxo,mk:Ultimatum_Game_Pilot4:1,6512ae672f906eda39b7e9db,6l6sdfbr,20,responder,2,p2p3,dominant,7,1,7,1,4475.4,3.75,2.4285714285714284
ultimatum_game,dogizqxo,mk:Ultimatum_Game_Pilot4:1,123123,5htytebn,1,proposer,3,p3p4,submissive,0,1,10,0,15956.9,1.0,1.0
ultimatum_game,dogizqxo,mk:Ultimatum_Game_Pilot4:1,123123,5htytebn,2,proposer,3,p1p3,dominant,5,1,10,1,8053.9,1.0,1.0
ultimatum_game,dogizqxo,mk:Ultimatum_Game_Pilot4:1,123123,5htytebn,3,responder,3,p3p5,dominant,6,1,6,1,4624.3,1.0,1.0
ultimatum_game,dogizqxo,mk:Ultimatum_Game_Pilot4:1,123123,5htytebn,4,proposer,3,p3p6,submissive,0,1,6,0,1226.7,1.0,1.0
ultimatum_game,dogizqxo,mk:Ultimatum_Game_Pilot4:1,123123,5htytebn,5,responder,3,p2p3,submissive,8,1,8,1,3115.4,1.0,1.0
ultimatum_game,dogizqxo,mk:Ultimatum_Game_Pilot4:1,123123,5htytebn,6,responder,3,p3p4,dominant,,0,10,,13756.6,1.0,1.0
ultimatum_game,dogizqxo,mk:Ultimatum_Game_Pilot4:1,123123,5htytebn,7,responder,3,p1p3,submissive,10,1,10,1,2116.7,1.0,1.0
ultimatum_game,dogizqxo,mk:Ultimatum_Game_Pilot4:1,123123,5htytebn,8,proposer,3,p3p5,dominant,8,1,7,1,82.7,1.0,1.0
ultimatum_game,dogizqxo,mk:Ultimatum_Game_Pilot4:1,123123,5htytebn,9,responder,3,p3p6,submissive,6,1,6,1,9291.6,1.0,1.0
ultimatum_game,dogizqxo,mk:Ultimatum_Game_Pilot4:1,123123,5htytebn,10,proposer,3,p2p3,dominant,8,1,7,1,1711.0,1.0,1.0
ultimatum_game,dogizqxo,mk:Ultimatum_Game_Pilot4:1,123123,5htytebn,11,proposer,3,p3p4,dominant,10,1,5,1,948.8,1.0,1.0
ultimatum_game,dogizqxo,mk:Ultimatum_Game_Pilot4:1,123123,5htytebn,12,proposer,3,p1p3,submissive,8,1,7,1,6034.1,1.0,1.0
ultimatum_game,dogizqxo,mk:Ultimatum_Game_Pilot4:1,123123,5htytebn,13,responder,3,p3p5,submissive,8,1,8,1,5745.5,1.0,1.0
ultimatum_game,dogizqxo,mk:Ultimatum_Game_Pilot4:1,123123,5htytebn,14,proposer,3,p3p6,dominant,7,1,8,1,8203.7,1.0,1.0
ultimatum_game,dogizqxo,mk:Ultimatum_Game_Pilot4:1,123123,5htytebn,15,responder,3,p2p3,dominant,7,1,7,1,9262.5,1.0,1.0
ultimatum_game,dogizqxo,mk:Ultimatum_Game_Pilot4:1,123123,5htytebn,16,responder,3,p3p4,submissive,10,1,10,1,8692.9,1.0,1.0
ultimatum_game,dogizqxo,mk:Ultimatum_Game_Pilot4:1,123123,5htytebn,17,responder,3,p1p3,dominant,10,1,10,1,5166.9,1.0,1.0
ultimatum_game,dogizqxo,mk:Ultimatum_Game_Pilot4:1,123123,5htytebn,18,proposer,3,p3p5,submissive,8,1,7,1,2948.1,1.0,1.0
ultimatum_game,dogizqxo,mk:Ultimatum_Game_Pilot4:1,123123,5htytebn,19,responder,3,p3p6,dominant,7,1,7,1,2955.7,1.0,1.0
ultimatum_game,dogizqxo,mk:Ultimatum_Game_Pilot4:1,123123,5htytebn,20,proposer,3,p2p3,submissive,8,1,7,1,4684.6,1.0,1.0
ultimatum_game,dogizqxo,mk:Ultimatum_Game_Pilot4:1,5d41925ef7b99500012b960e,5nui5dvc,1,responder,4,p3p4,dominant,0,1,10,0,9599.3,6.375,2.857142857142857
ultimatum_game,dogizqxo,mk:Ultimatum_Game_Pilot4:1,5d41925ef7b99500012b960e,5nui5dvc,2,proposer,4,p4p6,submissive,7,1,8,1,4747.9,6.375,2.857142857142857
ultimatum_game,dogizqxo,mk:Ultimatum_Game_Pilot4:1,5d41925ef7b99500012b960e,5nui5dvc,3,responder,4,p1p4,submissive,10,1,10,1,7312.2,6.375,2.857142857142857
ultimatum_game,dogizqxo,mk:Ultimatum_Game_Pilot4:1,5d41925ef7b99500012b960e,5nui5dvc,4,proposer,4,p2p4,dominant,5,1,10,1,4332.4,6.375,2.857142857142857
ultimatum_game,dogizqxo,mk:Ultimatum_Game_Pilot4:1,5d41925ef7b99500012b960e,5nui5dvc,5,proposer,4,p4p5,dominant,7,1,8,1,6317.0,6.375,2.857142857142857
ultimatum_game,dogizqxo,mk:Ultimatum_Game_Pilot4:1,5d41925ef7b99500012b960e,5nui5dvc,6,proposer,4,p3p4,submissive,8.0,1,10,,4566.1,6.375,2.857142857142857
ultimatum_game,dogizqxo,mk:Ultimatum_Game_Pilot4:1,5d41925ef7b99500012b960e,5nui5dvc,7,responder,4,p4p6,dominant,7,1,7,1,2944.3,6.375,2.857142857142857
ultimatum_game,dogizqxo,mk:Ultimatum_Game_Pilot4:1,5d41925ef7b99500012b960e,5nui5dvc,8,proposer,4,p1p4,dominant,5,1,10,1,2685.1,6.375,2.857142857142857
ultimatum_game,dogizqxo,mk:Ultimatum_Game_Pilot4:1,5d41925ef7b99500012b960e,5nui5dvc,9,responder,4,p2p4,submissive,7,1,7,1,4555.7,6.375,2.857142857142857
ultimatum_game,dogizqxo,mk:Ultimatum_Game_Pilot4:1,5d41925ef7b99500012b960e,5nui5dvc,10,responder,4,p4p5,submissive,7,1,7,1,4387.7,6.375,2.857142857142857
ultimatum_game,dogizqxo,mk:Ultimatum_Game_Pilot4:1,5d41925ef7b99500012b960e,5nui5dvc,11,responder,4,p3p4,submissive,5,1,5,1,5053.8,6.375,2.857142857142857
ultimatum_game,dogizqxo,mk:Ultimatum_Game_Pilot4:1,5d41925ef7b99500012b960e,5nui5dvc,12,proposer,4,p4p6,submissive,7,1,8,1,5847.2,6.375,2.857142857142857
ultimatum_game,dogizqxo,mk:Ultimatum_Game_Pilot4:1,5d41925ef7b99500012b960e,5nui5dvc,13,responder,4,p1p4,dominant,10,1,10,1,4076.6,6.375,2.857142857142857
ultimatum_game,dogizqxo,mk:Ultimatum_Game_Pilot4:1,5d41925ef7b99500012b960e,5nui5dvc,14,proposer,4,p2p4,submissive,7,1,8,1,4310.2,6.375,2.857142857142857
ultimatum_game,dogizqxo,mk:Ultimatum_Game_Pilot4:1,5d41925ef7b99500012b960e,5nui5dvc,15,proposer,4,p4p5,dominant,5,1,10,1,2149.5,6.375,2.857142857142857
ultimatum_game,dogizqxo,mk:Ultimatum_Game_Pilot4:1,5d41925ef7b99500012b960e,5nui5dvc,16,proposer,4,p3p4,dominant,5,1,10,1,2998.7,6.375,2.857142857142857
ultimatum_game,dogizqxo,mk:Ultimatum_Game_Pilot4:1,5d41925ef7b99500012b960e,5nui5dvc,17,responder,4,p4p6,dominant,7,1,7,1,3836.3,6.375,2.857142857142857
ultimatum_game,dogizqxo,mk:Ultimatum_Game_Pilot4:1,5d41925ef7b99500012b960e,5nui5dvc,18,proposer,4,p1p4,submissive,5,1,10,1,2842.6,6.375,2.857142857142857
ultimatum_game,dogizqxo,mk:Ultimatum_Game_Pilot4:1,5d41925ef7b99500012b960e,5nui5dvc,19,responder,4,p2p4,dominant,7,1,7,1,4938.2,6.375,2.857142857142857
ultimatum_game,dogizqxo,mk:Ultimatum_Game_Pilot4:1,5d41925ef7b99500012b960e,5nui5dvc,20,responder,4,p4p5,submissive,7,1,7,1,4617.3,6.375,2.857142857142857
ultimatum_game,dogizqxo,mk:Ultimatum_Game_Pilot4:1,63d3fa40f8f78ac9abc7c898,6i74rgmb,1,responder,5,p5p6,dominant,10,1,10,1,1274.2,3.25,1.5714285714285714
ultimatum_game,dogizqxo,mk:Ultimatum_Game_Pilot4:1,63d3fa40f8f78ac9abc7c898,6i74rgmb,2,responder,5,p2p5,submissive,0,1,5,0,7550.5,3.25,1.5714285714285714
ultimatum_game,dogizqxo,mk:Ultimatum_Game_Pilot4:1,63d3fa40f8f78ac9abc7c898,6i74rgmb,3,proposer,5,p3p5,submissive,9,1,6,1,5592.8,3.25,1.5714285714285714
ultimatum_game,dogizqxo,mk:Ultimatum_Game_Pilot4:1,63d3fa40f8f78ac9abc7c898,6i74rgmb,4,responder,5,p1p5,dominant,10,1,10,1,5076.6,3.25,1.5714285714285714
ultimatum_game,dogizqxo,mk:Ultimatum_Game_Pilot4:1,63d3fa40f8f78ac9abc7c898,6i74rgmb,5,responder,5,p4p5,submissive,8,1,8,1,4565.0,3.25,1.5714285714285714
ultimatum_game,dogizqxo,mk:Ultimatum_Game_Pilot4:1,63d3fa40f8f78ac9abc7c898,6i74rgmb,6,proposer,5,p5p6,submissive,7.0,1,8,1.0,3649.0,3.25,1.5714285714285714
ultimatum_game,dogizqxo,mk:Ultimatum_Game_Pilot4:1,63d3fa40f8f78ac9abc7c898,6i74rgmb,7,proposer,5,p2p5,submissive,7,1,8,1,2534.3,3.25,1.5714285714285714
ultimatum_game,dogizqxo,mk:Ultimatum_Game_Pilot4:1,63d3fa40f8f78ac9abc7c898,6i74rgmb,8,responder,5,p3p5,submissive,7,1,7,1,6419.5,3.25,1.5714285714285714
ultimatum_game,dogizqxo,mk:Ultimatum_Game_Pilot4:1,63d3fa40f8f78ac9abc7c898,6i74rgmb,9,proposer,5,p1p5,dominant,7,1,8,1,2482.2,3.25,1.5714285714285714
ultimatum_game,dogizqxo,mk:Ultimatum_Game_Pilot4:1,63d3fa40f8f78ac9abc7c898,6i74rgmb,10,proposer,5,p4p5,dominant,8,1,7,1,5456.3,3.25,1.5714285714285714
ultimatum_game,dogizqxo,mk:Ultimatum_Game_Pilot4:1,63d3fa40f8f78ac9abc7c898,6i74rgmb,11,responder,5,p5p6,submissive,7,1,7,1,3300.4,3.25,1.5714285714285714
ultimatum_game,dogizqxo,mk:Ultimatum_Game_Pilot4:1,63d3fa40f8f78ac9abc7c898,6i74rgmb,12,responder,5,p2p5,dominant,7,1,7,1,3134.1,3.25,1.5714285714285714
ultimatum_game,dogizqxo,mk:Ultimatum_Game_Pilot4:1,63d3fa40f8f78ac9abc7c898,6i74rgmb,13,proposer,5,p3p5,dominant,7,1,8,1,4503.6,3.25,1.5714285714285714
ultimatum_game,dogizqxo,mk:Ultimatum_Game_Pilot4:1,63d3fa40f8f78ac9abc7c898,6i74rgmb,14,responder,5,p1p5,submissive,10,1,10,1,3414.3,3.25,1.5714285714285714
ultimatum_game,dogizqxo,mk:Ultimatum_Game_Pilot4:1,63d3fa40f8f78ac9abc7c898,6i74rgmb,15,responder,5,p4p5,submissive,10,1,10,1,2768.1,3.25,1.5714285714285714
ultimatum_game,dogizqxo,mk:Ultimatum_Game_Pilot4:1,63d3fa40f8f78ac9abc7c898,6i74rgmb,16,proposer,5,p5p6,dominant,7,1,8,1,2629.2,3.25,1.5714285714285714
ultimatum_game,dogizqxo,mk:Ultimatum_Game_Pilot4:1,63d3fa40f8f78ac9abc7c898,6i74rgmb,17,proposer,5,p2p5,dominant,7,1,8,1,2620.8,3.25,1.5714285714285714
ultimatum_game,dogizqxo,mk:Ultimatum_Game_Pilot4:1,63d3fa40f8f78ac9abc7c898,6i74rgmb,18,responder,5,p3p5,dominant,7,1,7,1,3678.1,3.25,1.5714285714285714
ultimatum_game,dogizqxo,mk:Ultimatum_Game_Pilot4:1,63d3fa40f8f78ac9abc7c898,6i74rgmb,19,proposer,5,p1p5,submissive,5,1,10,1,2711.4,3.25,1.5714285714285714
ultimatum_game,dogizqxo,mk:Ultimatum_Game_Pilot4:1,63d3fa40f8f78ac9abc7c898,6i74rgmb,20,proposer,5,p4p5,dominant,8,1,7,1,1856.6,3.25,1.5714285714285714
ultimatum_game,dogizqxo,mk:Ultimatum_Game_Pilot4:1,62aa33eec600b41d4dc4b4e8,zi0hqzhp,1,proposer,6,p5p6,submissive,5,1,10,1,9605.4,3.125,2.2857142857142856
ultimatum_game,dogizqxo,mk:Ultimatum_Game_Pilot4:1,62aa33eec600b41d4dc4b4e8,zi0hqzhp,2,responder,6,p4p6,dominant,8,1,8,1,8150.5,3.125,2.2857142857142856
ultimatum_game,dogizqxo,mk:Ultimatum_Game_Pilot4:1,62aa33eec600b41d4dc4b4e8,zi0hqzhp,3,responder,6,p2p6,submissive,6,1,6,1,4569.3,3.125,2.2857142857142856
ultimatum_game,dogizqxo,mk:Ultimatum_Game_Pilot4:1,62aa33eec600b41d4dc4b4e8,zi0hqzhp,4,responder,6,p3p6,dominant,0,1,6,0,3606.5,3.125,2.2857142857142856
ultimatum_game,dogizqxo,mk:Ultimatum_Game_Pilot4:1,62aa33eec600b41d4dc4b4e8,zi0hqzhp,5,proposer,6,p1p6,submissive,8,1,7,1,10882.3,3.125,2.2857142857142856
ultimatum_game,dogizqxo,mk:Ultimatum_Game_Pilot4:1,62aa33eec600b41d4dc4b4e8,zi0hqzhp,6,responder,6,p5p6,dominant,8.0,1,8,1.0,3299.2,3.125,2.2857142857142856
ultimatum_game,dogizqxo,mk:Ultimatum_Game_Pilot4:1,62aa33eec600b41d4dc4b4e8,zi0hqzhp,7,proposer,6,p4p6,submissive,8,1,7,1,3761.2,3.125,2.2857142857142856
ultimatum_game,dogizqxo,mk:Ultimatum_Game_Pilot4:1,62aa33eec600b41d4dc4b4e8,zi0hqzhp,8,proposer,6,p2p6,dominant,8,1,7,1,4668.6,3.125,2.2857142857142856
ultimatum_game,dogizqxo,mk:Ultimatum_Game_Pilot4:1,62aa33eec600b41d4dc4b4e8,zi0hqzhp,9,proposer,6,p3p6,dominant,9,1,6,1,2034.0,3.125,2.2857142857142856
ultimatum_game,dogizqxo,mk:Ultimatum_Game_Pilot4:1,62aa33eec600b41d4dc4b4e8,zi0hqzhp,10,responder,6,p1p6,dominant,10,1,10,1,3535.7,3.125,2.2857142857142856
ultimatum_game,dogizqxo,mk:Ultimatum_Game_Pilot4:1,62aa33eec600b41d4dc4b4e8,zi0hqzhp,11,proposer,6,p5p6,dominant,8,1,7,1,3469.5,3.125,2.2857142857142856
ultimatum_game,dogizqxo,mk:Ultimatum_Game_Pilot4:1,62aa33eec600b41d4dc4b4e8,zi0hqzhp,12,responder,6,p4p6,dominant,8,1,8,1,2416.9,3.125,2.2857142857142856
ultimatum_game,dogizqxo,mk:Ultimatum_Game_Pilot4:1,62aa33eec600b41d4dc4b4e8,zi0hqzhp,13,responder,6,p2p6,dominant,8,1,8,1,2370.7,3.125,2.2857142857142856
ultimatum_game,dogizqxo,mk:Ultimatum_Game_Pilot4:1,62aa33eec600b41d4dc4b4e8,zi0hqzhp,14,responder,6,p3p6,submissive,8,1,8,1,3145.9,3.125,2.2857142857142856
ultimatum_game,dogizqxo,mk:Ultimatum_Game_Pilot4:1,62aa33eec600b41d4dc4b4e8,zi0hqzhp,15,proposer,6,p1p6,dominant,5,1,10,1,2342.4,3.125,2.2857142857142856
ultimatum_game,dogizqxo,mk:Ultimatum_Game_Pilot4:1,62aa33eec600b41d4dc4b4e8,zi0hqzhp,16,responder,6,p5p6,submissive,8,1,8,1,3116.0,3.125,2.2857142857142856
ultimatum_game,dogizqxo,mk:Ultimatum_Game_Pilot4:1,62aa33eec600b41d4dc4b4e8,zi0hqzhp,17,proposer,6,p4p6,submissive,8,1,7,1,5397.0,3.125,2.2857142857142856
ultimatum_game,dogizqxo,mk:Ultimatum_Game_Pilot4:1,62aa33eec600b41d4dc4b4e8,zi0hqzhp,18,proposer,6,p2p6,dominant,8,1,7,1,2265.7,3.125,2.2857142857142856
ultimatum_game,dogizqxo,mk:Ultimatum_Game_Pilot4:1,62aa33eec600b41d4dc4b4e8,zi0hqzhp,19,proposer,6,p3p6,submissive,8,1,7,1,4790.1,3.125,2.2857142857142856
ultimatum_game,dogizqxo,mk:Ultimatum_Game_Pilot4:1,62aa33eec600b41d4dc4b4e8,zi0hqzhp,20,responder,6,p1p6,submissive,10,1,10,1,2977.1,3.125,2.2857142857142856
ultimatum_game,dogizqxo,mk:Ultimatum_Game_Pilot4:1,665d9797303623aeb81d13d2,odegsytd,1,proposer,1,p1p2,dominant,5,1,10,1,6177.9,5.5,4.714285714285714
ultimatum_game,dogizqxo,mk:Ultimatum_Game_Pilot4:1,665d9797303623aeb81d13d2,odegsytd,2,responder,1,p1p3,submissive,10,1,10,1,6807.8,5.5,4.714285714285714
ultimatum_game,dogizqxo,mk:Ultimatum_Game_Pilot4:1,665d9797303623aeb81d13d2,odegsytd,3,proposer,1,p1p4,dominant,5,1,10,1,2416.2,5.5,4.714285714285714
ultimatum_game,dogizqxo,mk:Ultimatum_Game_Pilot4:1,665d9797303623aeb81d13d2,odegsytd,4,proposer,1,p1p5,submissive,5,1,10,1,3098.4,5.5,4.714285714285714
ultimatum_game,dogizqxo,mk:Ultimatum_Game_Pilot4:1,665d9797303623aeb81d13d2,odegsytd,5,responder,1,p1p6,dominant,7,1,7,1,4740.1,5.5,4.714285714285714
ultimatum_game,dogizqxo,mk:Ultimatum_Game_Pilot4:1,665d9797303623aeb81d13d2,odegsytd,6,responder,1,p1p2,dominant,10.0,1,10,1.0,4349.9,5.5,4.714285714285714
ultimatum_game,dogizqxo,mk:Ultimatum_Game_Pilot4:1,665d9797303623aeb81d13d2,odegsytd,7,proposer,1,p1p3,dominant,5,1,10,1,3941.8,5.5,4.714285714285714
ultimatum_game,dogizqxo,mk:Ultimatum_Game_Pilot4:1,665d9797303623aeb81d13d2,odegsytd,8,responder,1,p1p4,submissive,10,1,10,1,2978.0,5.5,4.714285714285714
ultimatum_game,dogizqxo,mk:Ultimatum_Game_Pilot4:1,665d9797303623aeb81d13d2,odegsytd,9,responder,1,p1p5,submissive,8,1,8,1,2372.5,5.5,4.714285714285714
ultimatum_game,dogizqxo,mk:Ultimatum_Game_Pilot4:1,665d9797303623aeb81d13d2,odegsytd,10,proposer,1,p1p6,submissive,5,1,10,1,2247.6,5.5,4.714285714285714
ultimatum_game,dogizqxo,mk:Ultimatum_Game_Pilot4:1,665d9797303623aeb81d13d2,odegsytd,11,proposer,1,p1p2,submissive,5,1,10,1,2450.4,5.5,4.714285714285714
ultimatum_game,dogizqxo,mk:Ultimatum_Game_Pilot4:1,665d9797303623aeb81d13d2,odegsytd,12,responder,1,p1p3,dominant,7,1,7,1,2659.6,5.5,4.714285714285714
ultimatum_game,dogizqxo,mk:Ultimatum_Game_Pilot4:1,665d9797303623aeb81d13d2,odegsytd,13,proposer,1,p1p4,submissive,5,1,10,1,2205.8,5.5,4.714285714285714
ultimatum_game,dogizqxo,mk:Ultimatum_Game_Pilot4:1,665d9797303623aeb81d13d2,odegsytd,14,proposer,1,p1p5,dominant,5,1,10,1,6710.8,5.5,4.714285714285714
ultimatum_game,dogizqxo,mk:Ultimatum_Game_Pilot4:1,665d9797303623aeb81d13d2,odegsytd,15,responder,1,p1p6,submissive,10,1,10,1,5595.0,5.5,4.714285714285714
ultimatum_game,dogizqxo,mk:Ultimatum_Game_Pilot4:1,665d9797303623aeb81d13d2,odegsytd,16,responder,1,p1p2,submissive,10,1,10,1,2217.8,5.5,4.714285714285714
ultimatum_game,dogizqxo,mk:Ultimatum_Game_Pilot4:1,665d9797303623aeb81d13d2,odegsytd,17,proposer,1,p1p3,submissive,5,1,10,1,2837.9,5.5,4.714285714285714
ultimatum_game,dogizqxo,mk:Ultimatum_Game_Pilot4:1,665d9797303623aeb81d13d2,odegsytd,18,responder,1,p1p4,dominant,10,1,10,1,10745.5,5.5,4.714285714285714
ultimatum_game,dogizqxo,mk:Ultimatum_Game_Pilot4:1,665d9797303623aeb81d13d2,odegsytd,19,responder,1,p1p5,dominant,10,1,10,1,4294.4,5.5,4.714285714285714
ultimatum_game,dogizqxo,mk:Ultimatum_Game_Pilot4:1,665d9797303623aeb81d13d2,odegsytd,20,proposer,1,p1p6,dominant,5,1,10,1,4826.1,5.5,4.714285714285714
ultimatum_game,dogizqxo,mk:Ultimatum_Game_Pilot4:1,6512ae672f906eda39b7e9db,6l6sdfbr,1,responder,2,p1p2,submissive,10,1,10,1,4574.0,3.75,2.4285714285714284
ultimatum_game,dogizqxo,mk:Ultimatum_Game_Pilot4:1,6512ae672f906eda39b7e9db,6l6sdfbr,2,proposer,2,p2p5,dominant,0,1,5,0,9672.4,3.75,2.4285714285714284
ultimatum_game,dogizqxo,mk:Ultimatum_Game_Pilot4:1,6512ae672f906eda39b7e9db,6l6sdfbr,3,proposer,2,p2p6,dominant,9,1,6,1,5034.8,3.75,2.4285714285714284
ultimatum_game,dogizqxo,mk:Ultimatum_Game_Pilot4:1,6512ae672f906eda39b7e9db,6l6sdfbr,4,responder,2,p2p4,submissive,10,1,10,1,8077.3,3.75,2.4285714285714284
ultimatum_game,dogizqxo,mk:Ultimatum_Game_Pilot4:1,6512ae672f906eda39b7e9db,6l6sdfbr,5,proposer,2,p2p3,dominant,7,1,8,1,5273.0,3.75,2.4285714285714284
ultimatum_game,dogizqxo,mk:Ultimatum_Game_Pilot4:1,6512ae672f906eda39b7e9db,6l6sdfbr,6,proposer,2,p1p2,submissive,5.0,1,10,1.0,6678.0,3.75,2.4285714285714284
ultimatum_game,dogizqxo,mk:Ultimatum_Game_Pilot4:1,6512ae672f906eda39b7e9db,6l6sdfbr,7,responder,2,p2p5,dominant,8,1,8,1,6028.3,3.75,2.4285714285714284
ultimatum_game,dogizqxo,mk:Ultimatum_Game_Pilot4:1,6512ae672f906eda39b7e9db,6l6sdfbr,8,responder,2,p2p6,submissive,7,1,7,1,5269.8,3.75,2.4285714285714284
ultimatum_game,dogizqxo,mk:Ultimatum_Game_Pilot4:1,6512ae672f906eda39b7e9db,6l6sdfbr,9,proposer,2,p2p4,dominant,8,1,7,1,4377.9,3.75,2.4285714285714284
ultimatum_game,dogizqxo,mk:Ultimatum_Game_Pilot4:1,6512ae672f906eda39b7e9db,6l6sdfbr,10,responder,2,p2p3,submissive,7,1,7,1,6767.4,3.75,2.4285714285714284
ultimatum_game,dogizqxo,mk:Ultimatum_Game_Pilot4:1,6512ae672f906eda39b7e9db,6l6sdfbr,11,responder,2,p1p2,dominant,10,1,10,1,4526.1,3.75,2.4285714285714284
ultimatum_game,dogizqxo,mk:Ultimatum_Game_Pilot4:1,6512ae672f906eda39b7e9db,6l6sdfbr,12,proposer,2,p2p5,submissive,8,1,7,1,3716.8,3.75,2.4285714285714284
ultimatum_game,dogizqxo,mk:Ultimatum_Game_Pilot4:1,6512ae672f906eda39b7e9db,6l6sdfbr,13,proposer,2,p2p6,submissive,7,1,8,1,3219.5,3.75,2.4285714285714284
ultimatum_game,dogizqxo,mk:Ultimatum_Game_Pilot4:1,6512ae672f906eda39b7e9db,6l6sdfbr,14,responder,2,p2p4,dominant,8,1,8,1,7144.3,3.75,2.4285714285714284
ultimatum_game,dogizqxo,mk:Ultimatum_Game_Pilot4:1,6512ae672f906eda39b7e9db,6l6sdfbr,15,proposer,2,p2p3,submissive,8,1,7,1,3076.3,3.75,2.4285714285714284
ultimatum_game,dogizqxo,mk:Ultimatum_Game_Pilot4:1,6512ae672f906eda39b7e9db,6l6sdfbr,16,proposer,2,p1p2,dominant,5,1,10,1,2869.9,3.75,2.4285714285714284
ultimatum_game,dogizqxo,mk:Ultimatum_Game_Pilot4:1,6512ae672f906eda39b7e9db,6l6sdfbr,17,responder,2,p2p5,submissive,8,1,8,1,4141.9,3.75,2.4285714285714284
ultimatum_game,dogizqxo,mk:Ultimatum_Game_Pilot4:1,6512ae672f906eda39b7e9db,6l6sdfbr,18,responder,2,p2p6,submissive,7,1,7,1,4308.8,3.75,2.4285714285714284
ultimatum_game,dogizqxo,mk:Ultimatum_Game_Pilot4:1,6512ae672f906eda39b7e9db,6l6sdfbr,19,proposer,2,p2p4,submissive,8,1,7,1,4990.0,3.75,2.4285714285714284
ultimatum_game,dogizqxo,mk:Ultimatum_Game_Pilot4:1,6512ae672f906eda39b7e9db,6l6sdfbr,20,responder,2,p2p3,dominant,7,1,7,1,4475.4,3.75,2.4285714285714284
ultimatum_game,dogizqxo,mk:Ultimatum_Game_Pilot4:1,123123,5htytebn,1,proposer,3,p3p4,submissive,0,1,10,0,15956.9,1.0,1.0
ultimatum_game,dogizqxo,mk:Ultimatum_Game_Pilot4:1,123123,5htytebn,2,proposer,3,p1p3,dominant,5,1,10,1,8053.9,1.0,1.0
ultimatum_game,dogizqxo,mk:Ultimatum_Game_Pilot4:1,123123,5htytebn,3,responder,3,p3p5,dominant,6,1,6,1,4624.3,1.0,1.0
ultimatum_game,dogizqxo,mk:Ultimatum_Game_Pilot4:1,123123,5htytebn,4,proposer,3,p3p6,submissive,0,1,6,0,1226.7,1.0,1.0
ultimatum_game,dogizqxo,mk:Ultimatum_Game_Pilot4:1,123123,5htytebn,5,responder,3,p2p3,submissive,8,1,8,1,3115.4,1.0,1.0
ultimatum_game,dogizqxo,mk:Ultimatum_Game_Pilot4:1,123123,5htytebn,6,responder,3,p3p4,dominant,,0,10,,13756.6,1.0,1.0
ultimatum_game,dogizqxo,mk:Ultimatum_Game_Pilot4:1,123123,5htytebn,7,responder,3,p1p3,submissive,10,1,10,1,2116.7,1.0,1.0
ultimatum_game,dogizqxo,mk:Ultimatum_Game_Pilot4:1,123123,5htytebn,8,proposer,3,p3p5,dominant,8,1,7,1,82.7,1.0,1.0
ultimatum_game,dogizqxo,mk:Ultimatum_Game_Pilot4:1,123123,5htytebn,9,responder,3,p3p6,submissive,6,1,6,1,9291.6,1.0,1.0
ultimatum_game,dogizqxo,mk:Ultimatum_Game_Pilot4:1,123123,5htytebn,10,proposer,3,p2p3,dominant,8,1,7,1,1711.0,1.0,1.0
ultimatum_game,dogizqxo,mk:Ultimatum_Game_Pilot4:1,123123,5htytebn,11,proposer,3,p3p4,dominant,10,1,5,1,948.8,1.0,1.0
ultimatum_game,dogizqxo,mk:Ultimatum_Game_Pilot4:1,123123,5htytebn,12,proposer,3,p1p3,submissive,8,1,7,1,6034.1,1.0,1.0
ultimatum_game,dogizqxo,mk:Ultimatum_Game_Pilot4:1,123123,5htytebn,13,responder,3,p3p5,submissive,8,1,8,1,5745.5,1.0,1.0
ultimatum_game,dogizqxo,mk:Ultimatum_Game_Pilot4:1,123123,5htytebn,14,proposer,3,p3p6,dominant,7,1,8,1,8203.7,1.0,1.0
ultimatum_game,dogizqxo,mk:Ultimatum_Game_Pilot4:1,123123,5htytebn,15,responder,3,p2p3,dominant,7,1,7,1,9262.5,1.0,1.0
ultimatum_game,dogizqxo,mk:Ultimatum_Game_Pilot4:1,123123,5htytebn,16,responder,3,p3p4,submissive,10,1,10,1,8692.9,1.0,1.0
ultimatum_game,dogizqxo,mk:Ultimatum_Game_Pilot4:1,123123,5htytebn,17,responder,3,p1p3,dominant,10,1,10,1,5166.9,1.0,1.0
ultimatum_game,dogizqxo,mk:Ultimatum_Game_Pilot4:1,123123,5htytebn,18,proposer,3,p3p5,submissive,8,1,7,1,2948.1,1.0,1.0
ultimatum_game,dogizqxo,mk:Ultimatum_Game_Pilot4:1,123123,5htytebn,19,responder,3,p3p6,dominant,7,1,7,1,2955.7,1.0,1.0
ultimatum_game,dogizqxo,mk:Ultimatum_Game_Pilot4:1,123123,5htytebn,20,proposer,3,p2p3,submissive,8,1,7,1,4684.6,1.0,1.0
ultimatum_game,dogizqxo,mk:Ultimatum_Game_Pilot4:1,5d41925ef7b99500012b960e,5nui5dvc,1,responder,4,p3p4,dominant,0,1,10,0,9599.3,6.375,2.857142857142857
ultimatum_game,dogizqxo,mk:Ultimatum_Game_Pilot4:1,5d41925ef7b99500012b960e,5nui5dvc,2,proposer,4,p4p6,submissive,7,1,8,1,4747.9,6.375,2.857142857142857
ultimatum_game,dogizqxo,mk:Ultimatum_Game_Pilot4:1,5d41925ef7b99500012b960e,5nui5dvc,3,responder,4,p1p4,submissive,10,1,10,1,7312.2,6.375,2.857142857142857
ultimatum_game,dogizqxo,mk:Ultimatum_Game_Pilot4:1,5d41925ef7b99500012b960e,5nui5dvc,4,proposer,4,p2p4,dominant,5,1,10,1,4332.4,6.375,2.857142857142857
ultimatum_game,dogizqxo,mk:Ultimatum_Game_Pilot4:1,5d41925ef7b99500012b960e,5nui5dvc,5,proposer,4,p4p5,dominant,7,1,8,1,6317.0,6.375,2.857142857142857
ultimatum_game,dogizqxo,mk:Ultimatum_Game_Pilot4:1,5d41925ef7b99500012b960e,5nui5dvc,6,proposer,4,p3p4,submissive,8.0,1,10,,4566.1,6.375,2.857142857142857
ultimatum_game,dogizqxo,mk:Ultimatum_Game_Pilot4:1,5d41925ef7b99500012b960e,5nui5dvc,7,responder,4,p4p6,dominant,7,1,7,1,2944.3,6.375,2.857142857142857
ultimatum_game,dogizqxo,mk:Ultimatum_Game_Pilot4:1,5d41925ef7b99500012b960e,5nui5dvc,8,proposer,4,p1p4,dominant,5,1,10,1,2685.1,6.375,2.857142857142857
ultimatum_game,dogizqxo,mk:Ultimatum_Game_Pilot4:1,5d41925ef7b99500012b960e,5nui5dvc,9,responder,4,p2p4,submissive,7,1,7,1,4555.7,6.375,2.857142857142857
ultimatum_game,dogizqxo,mk:Ultimatum_Game_Pilot4:1,5d41925ef7b99500012b960e,5nui5dvc,10,responder,4,p4p5,submissive,7,1,7,1,4387.7,6.375,2.857142857142857
ultimatum_game,dogizqxo,mk:Ultimatum_Game_Pilot4:1,5d41925ef7b99500012b960e,5nui5dvc,11,responder,4,p3p4,submissive,5,1,5,1,5053.8,6.375,2.857142857142857
ultimatum_game,dogizqxo,mk:Ultimatum_Game_Pilot4:1,5d41925ef7b99500012b960e,5nui5dvc,12,proposer,4,p4p6,submissive,7,1,8,1,5847.2,6.375,2.857142857142857
ultimatum_game,dogizqxo,mk:Ultimatum_Game_Pilot4:1,5d41925ef7b99500012b960e,5nui5dvc,13,responder,4,p1p4,dominant,10,1,10,1,4076.6,6.375,2.857142857142857
ultimatum_game,dogizqxo,mk:Ultimatum_Game_Pilot4:1,5d41925ef7b99500012b960e,5nui5dvc,14,proposer,4,p2p4,submissive,7,1,8,1,4310.2,6.375,2.857142857142857
ultimatum_game,dogizqxo,mk:Ultimatum_Game_Pilot4:1,5d41925ef7b99500012b960e,5nui5dvc,15,proposer,4,p4p5,dominant,5,1,10,1,2149.5,6.375,2.857142857142857
ultimatum_game,dogizqxo,mk:Ultimatum_Game_Pilot4:1,5d41925ef7b99500012b960e,5nui5dvc,16,proposer,4,p3p4,dominant,5,1,10,1,2998.7,6.375,2.857142857142857
ultimatum_game,dogizqxo,mk:Ultimatum_Game_Pilot4:1,5d41925ef7b99500012b960e,5nui5dvc,17,responder,4,p4p6,dominant,7,1,7,1,3836.3,6.375,2.857142857142857
ultimatum_game,dogizqxo,mk:Ultimatum_Game_Pilot4:1,5d41925ef7b99500012b960e,5nui5dvc,18,proposer,4,p1p4,submissive,5,1,10,1,2842.6,6.375,2.857142857142857
ultimatum_game,dogizqxo,mk:Ultimatum_Game_Pilot4:1,5d41925ef7b99500012b960e,5nui5dvc,19,responder,4,p2p4,dominant,7,1,7,1,4938.2,6.375,2.857142857142857
ultimatum_game,dogizqxo,mk:Ultimatum_Game_Pilot4:1,5d41925ef7b99500012b960e,5nui5dvc,20,responder,4,p4p5,submissive,7,1,7,1,4617.3,6.375,2.857142857142857
ultimatum_game,dogizqxo,mk:Ultimatum_Game_Pilot4:1,63d3fa40f8f78ac9abc7c898,6i74rgmb,1,responder,5,p5p6,dominant,10,1,10,1,1274.2,3.25,1.5714285714285714
ultimatum_game,dogizqxo,mk:Ultimatum_Game_Pilot4:1,63d3fa40f8f78ac9abc7c898,6i74rgmb,2,responder,5,p2p5,submissive,0,1,5,0,7550.5,3.25,1.5714285714285714
ultimatum_game,dogizqxo,mk:Ultimatum_Game_Pilot4:1,63d3fa40f8f78ac9abc7c898,6i74rgmb,3,proposer,5,p3p5,submissive,9,1,6,1,5592.8,3.25,1.5714285714285714
ultimatum_game,dogizqxo,mk:Ultimatum_Game_Pilot4:1,63d3fa40f8f78ac9abc7c898,6i74rgmb,4,responder,5,p1p5,dominant,10,1,10,1,5076.6,3.25,1.5714285714285714
ultimatum_game,dogizqxo,mk:Ultimatum_Game_Pilot4:1,63d3fa40f8f78ac9abc7c898,6i74rgmb,5,responder,5,p4p5,submissive,8,1,8,1,4565.0,3.25,1.5714285714285714
ultimatum_game,dogizqxo,mk:Ultimatum_Game_Pilot4:1,63d3fa40f8f78ac9abc7c898,6i74rgmb,6,proposer,5,p5p6,submissive,7.0,1,8,1.0,3649.0,3.25,1.5714285714285714
ultimatum_game,dogizqxo,mk:Ultimatum_Game_Pilot4:1,63d3fa40f8f78ac9abc7c898,6i74rgmb,7,proposer,5,p2p5,submissive,7,1,8,1,2534.3,3.25,1.5714285714285714
ultimatum_game,dogizqxo,mk:Ultimatum_Game_Pilot4:1,63d3fa40f8f78ac9abc7c898,6i74rgmb,8,responder,5,p3p5,submissive,7,1,7,1,6419.5,3.25,1.5714285714285714
ultimatum_game,dogizqxo,mk:Ultimatum_Game_Pilot4:1,63d3fa40f8f78ac9abc7c898,6i74rgmb,9,proposer,5,p1p5,dominant,7,1,8,1,2482.2,3.25,1.5714285714285714
ultimatum_game,dogizqxo,mk:Ultimatum_Game_Pilot4:1,63d3fa40f8f78ac9abc7c898,6i74rgmb,10,proposer,5,p4p5,dominant,8,1,7,1,5456.3,3.25,1.5714285714285714
ultimatum_game,dogizqxo,mk:Ultimatum_Game_Pilot4:1,63d3fa40f8f78ac9abc7c898,6i74rgmb,11,responder,5,p5p6,submissive,7,1,7,1,3300.4,3.25,1.5714285714285714
ultimatum_game,dogizqxo,mk:Ultimatum_Game_Pilot4:1,63d3fa40f8f78ac9abc7c898,6i74rgmb,12,responder,5,p2p5,dominant,7,1,7,1,3134.1,3.25,1.5714285714285714
ultimatum_game,dogizqxo,mk:Ultimatum_Game_Pilot4:1,63d3fa40f8f78ac9abc7c898,6i74rgmb,13,proposer,5,p3p5,dominant,7,1,8,1,4503.6,3.25,1.5714285714285714
ultimatum_game,dogizqxo,mk:Ultimatum_Game_Pilot4:1,63d3fa40f8f78ac9abc7c898,6i74rgmb,14,responder,5,p1p5,submissive,10,1,10,1,3414.3,3.25,1.5714285714285714
ultimatum_game,dogizqxo,mk:Ultimatum_Game_Pilot4:1,63d3fa40f8f78ac9abc7c898,6i74rgmb,15,responder,5,p4p5,submissive,10,1,10,1,2768.1,3.25,1.5714285714285714
ultimatum_game,dogizqxo,mk:Ultimatum_Game_Pilot4:1,63d3fa40f8f78ac9abc7c898,6i74rgmb,16,proposer,5,p5p6,dominant,7,1,8,1,2629.2,3.25,1.5714285714285714
ultimatum_game,dogizqxo,mk:Ultimatum_Game_Pilot4:1,63d3fa40f8f78ac9abc7c898,6i74rgmb,17,proposer,5,p2p5,dominant,7,1,8,1,2620.8,3.25,1.5714285714285714
ultimatum_game,dogizqxo,mk:Ultimatum_Game_Pilot4:1,63d3fa40f8f78ac9abc7c898,6i74rgmb,18,responder,5,p3p5,dominant,7,1,7,1,3678.1,3.25,1.5714285714285714
ultimatum_game,dogizqxo,mk:Ultimatum_Game_Pilot4:1,63d3fa40f8f78ac9abc7c898,6i74rgmb,19,proposer,5,p1p5,submissive,5,1,10,1,2711.4,3.25,1.5714285714285714
ultimatum_game,dogizqxo,mk:Ultimatum_Game_Pilot4:1,63d3fa40f8f78ac9abc7c898,6i74rgmb,20,proposer,5,p4p5,dominant,8,1,7,1,1856.6,3.25,1.5714285714285714
ultimatum_game,dogizqxo,mk:Ultimatum_Game_Pilot4:1,62aa33eec600b41d4dc4b4e8,zi0hqzhp,1,proposer,6,p5p6,submissive,5,1,10,1,9605.4,3.125,2.2857142857142856
ultimatum_game,dogizqxo,mk:Ultimatum_Game_Pilot4:1,62aa33eec600b41d4dc4b4e8,zi0hqzhp,2,responder,6,p4p6,dominant,8,1,8,1,8150.5,3.125,2.2857142857142856
ultimatum_game,dogizqxo,mk:Ultimatum_Game_Pilot4:1,62aa33eec600b41d4dc4b4e8,zi0hqzhp,3,responder,6,p2p6,submissive,6,1,6,1,4569.3,3.125,2.2857142857142856
ultimatum_game,dogizqxo,mk:Ultimatum_Game_Pilot4:1,62aa33eec600b41d4dc4b4e8,zi0hqzhp,4,responder,6,p3p6,dominant,0,1,6,0,3606.5,3.125,2.2857142857142856
ultimatum_game,dogizqxo,mk:Ultimatum_Game_Pilot4:1,62aa33eec600b41d4dc4b4e8,zi0hqzhp,5,proposer,6,p1p6,submissive,8,1,7,1,10882.3,3.125,2.2857142857142856
ultimatum_game,dogizqxo,mk:Ultimatum_Game_Pilot4:1,62aa33eec600b41d4dc4b4e8,zi0hqzhp,6,responder,6,p5p6,dominant,8.0,1,8,1.0,3299.2,3.125,2.2857142857142856
ultimatum_game,dogizqxo,mk:Ultimatum_Game_Pilot4:1,62aa33eec600b41d4dc4b4e8,zi0hqzhp,7,proposer,6,p4p6,submissive,8,1,7,1,3761.2,3.125,2.2857142857142856
ultimatum_game,dogizqxo,mk:Ultimatum_Game_Pilot4:1,62aa33eec600b41d4dc4b4e8,zi0hqzhp,8,proposer,6,p2p6,dominant,8,1,7,1,4668.6,3.125,2.2857142857142856
ultimatum_game,dogizqxo,mk:Ultimatum_Game_Pilot4:1,62aa33eec600b41d4dc4b4e8,zi0hqzhp,9,proposer,6,p3p6,dominant,9,1,6,1,2034.0,3.125,2.2857142857142856
ultimatum_game,dogizqxo,mk:Ultimatum_Game_Pilot4:1,62aa33eec600b41d4dc4b4e8,zi0hqzhp,10,responder,6,p1p6,dominant,10,1,10,1,3535.7,3.125,2.2857142857142856
ultimatum_game,dogizqxo,mk:Ultimatum_Game_Pilot4:1,62aa33eec600b41d4dc4b4e8,zi0hqzhp,11,proposer,6,p5p6,dominant,8,1,7,1,3469.5,3.125,2.2857142857142856
ultimatum_game,dogizqxo,mk:Ultimatum_Game_Pilot4:1,62aa33eec600b41d4dc4b4e8,zi0hqzhp,12,responder,6,p4p6,dominant,8,1,8,1,2416.9,3.125,2.2857142857142856
ultimatum_game,dogizqxo,mk:Ultimatum_Game_Pilot4:1,62aa33eec600b41d4dc4b4e8,zi0hqzhp,13,responder,6,p2p6,dominant,8,1,8,1,2370.7,3.125,2.2857142857142856
ultimatum_game,dogizqxo,mk:Ultimatum_Game_Pilot4:1,62aa33eec600b41d4dc4b4e8,zi0hqzhp,14,responder,6,p3p6,submissive,8,1,8,1,3145.9,3.125,2.2857142857142856
ultimatum_game,dogizqxo,mk:Ultimatum_Game_Pilot4:1,62aa33eec600b41d4dc4b4e8,zi0hqzhp,15,proposer,6,p1p6,dominant,5,1,10,1,2342.4,3.125,2.2857142857142856
ultimatum_game,dogizqxo,mk:Ultimatum_Game_Pilot4:1,62aa33eec600b41d4dc4b4e8,zi0hqzhp,16,responder,6,p5p6,submissive,8,1,8,1,3116.0,3.125,2.2857142857142856
ultimatum_game,dogizqxo,mk:Ultimatum_Game_Pilot4:1,62aa33eec600b41d4dc4b4e8,zi0hqzhp,17,proposer,6,p4p6,submissive,8,1,7,1,5397.0,3.125,2.2857142857142856
ultimatum_game,dogizqxo,mk:Ultimatum_Game_Pilot4:1,62aa33eec600b41d4dc4b4e8,zi0hqzhp,18,proposer,6,p2p6,dominant,8,1,7,1,2265.7,3.125,2.2857142857142856
ultimatum_game,dogizqxo,mk:Ultimatum_Game_Pilot4:1,62aa33eec600b41d4dc4b4e8,zi0hqzhp,19,proposer,6,p3p6,submissive,8,1,7,1,4790.1,3.125,2.2857142857142856
ultimatum_game,dogizqxo,mk:Ultimatum_Game_Pilot4:1,62aa33eec600b41d4dc4b4e8,zi0hqzhp,20,responder,6,p1p6,submissive,10,1,10,1,2977.1,3.125,2.2857142857142856
